# scenario_id: 20
# description: Forward fall when trying to sit down
# age: 32
# height_m: 1.75
# sex: male
# weight_kg: 80.0
t,ax,ay,az,gx,gy,gz,pelvis_z,pelvis_vx,impact_n,accel_mag,fall
0.0,0.04225,0.02285,9.81382,0.81051,-0.42097,-0.23378,0.93563,-0.16913,0.0,9.81394,0
0.01,-0.11918,0.47092,8.98765,0.91456,-0.45338,-0.18566,0.93546,-0.15096,0.0,9.00077,0
0.02,-0.2806,0.91899,8.16149,1.0186,-0.48579,-0.13755,0.93529,-0.13279,0.0,8.21786,0
0.03,-0.44202,1.36706,7.33532,1.12265,-0.5182,-0.08944,0.93512,-0.11462,0.0,7.4747,0
0.04,-0.52565,1.92263,6.70525,1.15971,-0.50235,-0.05165,0.93474,-0.09566,0.0,6.99522,0
0.05,-0.57038,2.53194,6.17322,1.16328,-0.46237,-0.01903,0.93427,-0.07631,0.0,6.69662,0
0.06,-0.61512,3.14126,5.64119,1.16684,-0.42239,0.01359,0.9338,-0.05696,0.0,6.48605,0
0.07,-0.67885,3.74115,5.06179,1.15892,-0.3776,0.04269,0.93327,-0.04145,0.0,6.33078,0
0.08,-0.78059,4.3222,4.38767,1.128,-0.32319,0.06476,0.93264,-0.03361,0.0,6.20825,0
0.09,-0.88233,4.90324,3.71354,1.09708,-0.26879,0.08684,0.932,-0.02576,0.0,6.21375,0
0.1,-0.98406,5.48429,3.03941,1.06617,-0.21438,0.10891,0.93137,-0.01792,0.0,6.34695,0
0.11,-0.98293,5.93338,2.61852,0.99745,-0.16704,0.11512,0.93093,-0.01872,0.0,6.55956,0
0.12,-0.9818,6.38247,2.19763,0.92874,-0.1197,0.12133,0.93049,-0.01952,0.0,6.82125,0
0.13,-0.98067,6.83156,1.77674,0.86002,-0.07236,0.12754,0.93005,-0.02033,0.0,7.12662,0
0.14,-0.92467,7.23982,1.34943,0.78939,-0.05155,0.14662,0.92965,-0.0312,0.0,7.42232,0
0.15,-0.84123,7.62765,0.91891,0.71781,-0.04399,0.17212,0.92927,-0.04712,0.0,7.72872,0
0.16,-0.75779,8.01548,0.4884,0.64622,-0.03644,0.19762,0.92889,-0.06303,0.0,8.06602,0
0.17,-0.69529,8.35164,0.13022,0.58004,-0.03653,0.22524,0.92861,-0.07379,0.0,8.38154,0
0.18,-0.67467,8.58445,-0.08329,0.52466,-0.05189,0.25711,0.92851,-0.07424,0.0,8.61132,0
0.19,-0.65404,8.81725,-0.2968,0.46927,-0.06725,0.28898,0.92841,-0.0747,0.0,8.84646,0
0.2,-0.63342,9.05006,-0.5103,0.41389,-0.08261,0.32085,0.92831,-0.07515,0.0,9.08654,0
0.21,-0.61564,9.09606,-0.65051,0.37446,-0.08435,0.34666,0.92822,-0.06933,0.0,9.14005,0
0.22,-0.59785,9.14206,-0.79071,0.33503,-0.08608,0.37247,0.92813,-0.06351,0.0,9.19565,0
0.23,-0.58007,9.18807,-0.93091,0.2956,-0.08782,0.39828,0.92805,-0.05769,0.0,9.2533,0
0.24,-0.56156,9.24211,-1.04895,0.25743,-0.079,0.41351,0.928,-0.05171,0.0,9.31838,0
0.25,-0.54269,9.30017,-1.1559,0.2199,-0.06489,0.42345,0.92798,-0.04565,0.0,9.38743,0
0.26,-0.52382,9.35824,-1.26286,0.18237,-0.05078,0.43339,0.92795,-0.03959,0.0,9.45758,0
0.27,-0.5169,9.39731,-1.3501,0.14849,-0.037,0.43648,0.92794,-0.03474,0.0,9.50786,0
0.28,-0.53388,9.39843,-1.39789,0.12193,-0.02389,0.42589,0.92795,-0.03228,0.0,9.5168,0
0.29,-0.55085,9.39954,-1.44568,0.09537,-0.01078,0.41531,0.92796,-0.02982,0.0,9.526,0
0.3,-0.56782,9.40065,-1.49347,0.0688,0.00233,0.40472,0.92796,-0.02736,0.0,9.53546,0
0.31,-0.57757,9.38583,-1.52118,0.05676,0.00755,0.39228,0.92799,-0.02738,0.0,9.52583,0
0.32,-0.58731,9.37101,-1.5489,0.04472,0.01276,0.37984,0.92803,-0.0274,0.0,9.5163,0
0.33,-0.59705,9.3562,-1.57662,0.03268,0.01797,0.3674,0.92806,-0.02742,0.0,9.50687,0
0.34,-0.60724,9.34457,-1.60382,0.02626,0.01893,0.35544,0.9281,-0.02703,0.0,9.50063,0
0.35,-0.61764,9.33453,-1.63076,0.02264,0.01776,0.34372,0.92816,-0.02644,0.0,9.49602,0
0.36,-0.62805,9.32449,-1.6577,0.01903,0.01659,0.332,0.92822,-0.02584,0.0,9.4915,0
0.37,-0.63736,9.31036,-1.67915,0.01627,0.01599,0.32093,0.92827,-0.02494,0.0,9.48201,0
0.38,-0.64446,9.28803,-1.68961,0.01524,0.01653,0.31113,0.92833,-0.02342,0.0,9.46243,0
0.39,-0.65157,9.2657,-1.70007,0.01421,0.01708,0.30133,0.92839,-0.0219,0.0,9.44288,0
0.4,-0.65868,9.24337,-1.71053,0.01317,0.01762,0.29154,0.92845,-0.02038,0.0,9.42336,0
0.41,-0.67291,9.24665,-1.70776,0.01279,0.0174,0.28293,0.92849,-0.01888,0.0,9.42707,0
0.42,-0.68714,9.24992,-1.70498,0.01241,0.01717,0.27432,0.92854,-0.01737,0.0,9.43081,0
0.43,-0.70137,9.25319,-1.70221,0.01202,0.01695,0.26571,0.92858,-0.01586,0.0,9.43457,0
0.44,-0.71303,9.26802,-1.707,0.01133,0.01783,0.25522,0.92862,-0.01468,0.0,9.45084,0
0.45,-0.7234,9.28862,-1.71557,0.01048,0.01927,0.24379,0.92866,-0.01365,0.0,9.47339,0
0.46,-0.73378,9.30923,-1.72415,0.00962,0.02071,0.23236,0.92869,-0.01263,0.0,9.49594,0
0.47,-0.7438,9.32907,-1.73067,0.00895,0.02174,0.22171,0.92873,-0.01188,0.0,9.51736,0
0.48,-0.75311,9.34741,-1.73306,0.00864,0.02195,0.21261,0.92875,-0.01169,0.0,9.5365,0
0.49,-0.76242,9.36575,-1.73546,0.00832,0.02216,0.20351,0.92877,-0.01149,0.0,9.55564,0
0.5,-0.77174,9.38408,-1.73786,0.00801,0.02237,0.1944,0.9288,-0.0113,0.0,9.5748,0
0.51,-0.78403,9.39474,-1.74116,0.00876,0.02539,0.18749,0.92882,-0.01153,0.0,9.58684,0
0.52,-0.79632,9.40541,-1.74446,0.00952,0.0284,0.18057,0.92883,-0.01176,0.0,9.5989,0
0.53,-0.80862,9.41607,-1.74776,0.01027,0.03142,0.17366,0.92885,-0.01199,0.0,9.61098,0
0.54,-0.81678,9.42796,-1.7577,0.01079,0.03207,0.16934,0.92887,-0.01231,0.0,9.62513,0
0.55,-0.82287,9.44047,-1.77096,0.01119,0.03153,0.16633,0.92888,-0.01269,0.0,9.64033,0
0.56,-0.82897,9.45298,-1.78422,0.01159,0.031,0.16332,0.92889,-0.01307,0.0,9.65554,0
0.57,-0.83538,9.4648,-1.79281,0.01159,0.03064,0.15987,0.92891,-0.01345,0.0,9.66925,0
0.58,-0.84244,9.47523,-1.79207,0.01081,0.03065,0.15557,0.92892,-0.01382,0.0,9.67994,0
0.59,-0.84951,9.48567,-1.79134,0.01002,0.03066,0.15126,0.92893,-0.0142,0.0,9.69064,0
0.6,-0.85657,9.4961,-1.7906,0.00923,0.03067,0.14695,0.92894,-0.01458,0.0,9.70134,0
0.61,-0.8559,9.49511,-1.78193,0.00841,0.02953,0.14499,0.92895,-0.01488,0.0,9.69871,0
0.62,-0.85522,9.49413,-1.77327,0.00759,0.0284,0.14303,0.92896,-0.01519,0.0,9.6961,0
0.63,-0.85455,9.49314,-1.7646,0.00677,0.02726,0.14107,0.92897,-0.01549,0.0,9.69349,0
0.64,-0.86065,9.49229,-1.76228,0.00669,0.02453,0.13766,0.92898,-0.01572,0.0,9.69278,0
0.65,-0.87013,9.49151,-1.76314,0.00698,0.02101,0.13352,0.92899,-0.01592,0.0,9.69301,0
0.66,-0.87961,9.49073,-1.76399,0.00727,0.01748,0.12937,0.929,-0.01612,0.0,9.69326,0
0.67,-0.88841,9.49142,-1.76675,0.00825,0.01444,0.12527,0.929,-0.01628,0.0,9.69524,0
0.68,-0.89583,9.49505,-1.7733,0.01062,0.01237,0.12125,0.92901,-0.01638,0.0,9.70067,0
0.69,-0.90326,9.49868,-1.77986,0.01299,0.0103,0.11723,0.92902,-0.01647,0.0,9.70612,0
0.7,-0.91068,9.50231,-1.78641,0.01535,0.00822,0.11321,0.92902,-0.01656,0.0,9.71157,0
0.71,-0.90548,9.49399,-1.78482,0.01684,0.00564,0.11021,0.92903,-0.01656,0.0,9.70265,0
0.72,-0.90027,9.48568,-1.78323,0.01832,0.00306,0.1072,0.92904,-0.01655,0.0,9.69373,0
0.73,-0.89507,9.47736,-1.78163,0.0198,0.00048,0.1042,0.92904,-0.01655,0.0,9.68482,0
0.74,-0.89286,9.47763,-1.786,0.01913,-0.00019,0.10142,0.92905,-0.01648,0.0,9.68568,0
0.75,-0.89215,9.4822,-1.79336,0.01739,0.00011,0.09875,0.92905,-0.0164,0.0,9.69145,0
0.76,-0.89143,9.48677,-1.80071,0.01565,0.0004,0.09609,0.92906,-0.01631,0.0,9.69721,0
0.77,-0.89085,9.49008,-1.80647,0.01461,0.00059,0.09311,0.92906,-0.0162,0.0,9.70147,0
0.78,-0.8905,9.49088,-1.80905,0.01496,0.00059,0.0895,0.92907,-0.01605,0.0,9.70271,0
0.79,-0.89016,9.49169,-1.81162,0.01531,0.00058,0.08589,0.92907,-0.0159,0.0,9.70394,0
0.8,-0.88982,9.49249,-1.8142,0.01566,0.00058,0.08228,0.92907,-0.01575,0.0,9.70518,0
0.81,-0.88045,9.4941,-1.81937,0.01639,-0.00074,0.08071,0.92908,-0.01556,0.0,9.70687,0
0.82,-0.87108,9.49572,-1.82455,0.01713,-0.00205,0.07913,0.92908,-0.01537,0.0,9.70857,0
0.83,-0.8617,9.49733,-1.82972,0.01786,-0.00336,0.07755,0.92908,-0.01518,0.0,9.71029,0
0.84,-0.85668,9.49408,-1.82601,0.01831,-0.00311,0.07675,0.92909,-0.01497,0.0,9.70597,0
0.85,-0.85384,9.48841,-1.81786,0.01861,-0.00208,0.07633,0.92909,-0.01476,0.0,9.69864,0
0.86,-0.851,9.48274,-1.80971,0.01892,-0.00105,0.07592,0.92909,-0.01455,0.0,9.69132,0
0.87,-0.85114,9.47788,-1.80589,0.01876,-0.00039,0.07486,0.92909,-0.01433,0.0,9.68586,0
0.88,-0.85724,9.47466,-1.81074,0.01768,-0.00048,0.07252,0.9291,-0.01411,0.0,9.68415,0
0.89,-0.86334,9.47143,-1.81559,0.0166,-0.00057,0.07017,0.9291,-0.01389,0.0,9.68244,0
0.9,-0.86944,9.4682,-1.82044,0.01551,-0.00066,0.06782,0.9291,-0.01367,0.0,9.68074,0
0.91,-0.87126,9.47561,-1.81926,0.01714,-0.00082,0.0683,0.9291,-0.01344,0.0,9.68793,0
0.92,-0.87307,9.48302,-1.81809,0.01877,-0.00099,0.06878,0.9291,-0.01322,0.0,9.69512,0
0.93,-0.87489,9.49042,-1.81692,0.0204,-0.00116,0.06926,0.9291,-0.013,0.0,9.70231,0
0.94,-0.87517,9.49064,-1.82035,0.02106,-0.00121,0.06803,0.9291,-0.01278,0.0,9.70319,0
0.95,-0.87469,9.48726,-1.82608,0.02125,-0.00119,0.06596,0.92911,-0.01256,0.0,9.70092,0
0.96,-0.8742,9.48388,-1.83181,0.02143,-0.00118,0.06389,0.92911,-0.01235,0.0,9.69865,0
0.97,-0.87409,9.48248,-1.83678,0.02088,-0.00122,0.06196,0.92911,-0.01214,0.0,9.6982,0
0.98,-0.87472,9.48502,-1.8402,0.01885,-0.00138,0.06032,0.92911,-0.01193,0.0,9.7014,0
0.99,-0.87535,9.48757,-1.84362,0.01682,-0.00153,0.05867,0.92911,-0.01173,0.0,9.70459,0
1.0,-0.87598,9.49011,-1.84704,0.01479,-0.00169,0.05703,0.92911,-0.01152,0.0,9.70779,0
1.01,-0.87804,9.48576,-1.84412,0.01529,-0.00222,0.05483,0.9291,-0.01132,0.0,9.70316,0
1.02,-0.8801,9.48141,-1.84119,0.01579,-0.00275,0.05263,0.9291,-0.01113,0.0,9.69854,0
1.03,-0.88216,9.47705,-1.83827,0.01628,-0.00329,0.05044,0.9291,-0.01093,0.0,9.69391,0
1.04,-0.88453,9.47402,-1.83532,0.01682,-0.00229,0.04913,0.9291,-0.01074,0.0,9.69061,0
1.05,-0.88705,9.47166,-1.83236,0.01737,-0.00054,0.04828,0.9291,-0.01056,0.0,9.68797,0
1.06,-0.88958,9.46929,-1.8294,0.01792,0.00122,0.04742,0.9291,-0.01037,0.0,9.68533,0
1.07,-0.89468,9.4676,-1.82648,0.01841,0.00264,0.04759,0.9291,-0.01019,0.0,9.68359,0
1.08,-0.90492,9.46723,-1.82363,0.01876,0.00339,0.04982,0.9291,-0.01,0.0,9.68364,0
1.09,-0.91516,9.46687,-1.82079,0.01912,0.00414,0.05205,0.9291,-0.00982,0.0,9.68371,0
1.1,-0.9254,9.4665,-1.81794,0.01947,0.00489,0.05429,0.92909,-0.00964,0.0,9.6838,0
1.11,-0.922,9.47834,-1.81354,0.01988,0.00457,0.05252,0.92909,-0.00947,0.0,9.69422,0
1.12,-0.91861,9.49018,-1.80915,0.02028,0.00426,0.05075,0.92909,-0.00929,0.0,9.70466,0
1.13,-0.91522,9.50202,-1.80475,0.02069,0.00394,0.04898,0.92909,-0.00912,0.0,9.7151,0
1.14,-0.91756,9.50678,-1.80677,0.02061,0.00557,0.04553,0.92909,-0.00895,0.0,9.72035,0
1.15,-0.92276,9.508,-1.812,0.02028,0.00818,0.04124,0.92909,-0.00878,0.0,9.72301,0
1.16,-0.92797,9.50922,-1.81724,0.01996,0.01079,0.03695,0.92908,-0.00861,0.0,9.72567,0
1.17,-0.92998,9.50772,-1.82211,0.02003,0.01237,0.03326,0.92908,-0.00844,0.0,9.72532,0
1.18,-0.92558,9.50081,-1.82628,0.02086,0.01192,0.03075,0.92908,-0.00828,0.0,9.71892,0
1.19,-0.92119,9.4939,-1.83045,0.02169,0.01147,0.02824,0.92908,-0.00812,0.0,9.71253,0
1.2,-0.91679,9.48699,-1.83462,0.02252,0.01102,0.02573,0.92908,-0.00795,0.0,9.70615,0
1.21,-0.92158,9.49501,-1.83954,0.0222,0.01066,0.02419,0.92907,-0.0078,0.0,9.71537,0
1.22,-0.92636,9.50302,-1.84446,0.02187,0.01029,0.02266,0.92907,-0.00764,0.0,9.72459,0
1.23,-0.93115,9.51104,-1.84938,0.02155,0.00992,0.02112,0.92907,-0.00748,0.0,9.73381,0
1.24,-0.92422,9.51763,-1.85866,0.02125,0.0091,0.02086,0.92907,-0.00733,0.0,9.74136,0
1.25,-0.91144,9.52351,-1.87013,0.02097,0.00805,0.02124,0.92907,-0.00718,0.0,9.74809,0
1.26,-0.89865,9.52939,-1.88159,0.02068,0.00699,0.02162,0.92906,-0.00703,0.0,9.75485,0
1.27,-0.89255,9.53337,-1.88736,0.02065,0.00583,0.02151,0.92906,-0.00688,0.0,9.7593,0
1.28,-0.89982,9.53358,-1.88174,0.02116,0.00444,0.02044,0.92906,-0.00674,0.0,9.75909,0
1.29,-0.90709,9.53379,-1.87611,0.02166,0.00305,0.01937,0.92906,-0.0066,0.0,9.75888,0
1.3,-0.91435,9.534,-1.87049,0.02216,0.00166,0.0183,0.92905,-0.00645,0.0,9.75868,0
1.31,-0.91811,9.5311,-1.8592,0.02204,0.00053,0.01878,0.92905,-0.00632,0.0,9.75405,0
1.32,-0.92188,9.5282,-1.84791,0.02191,-0.00059,0.01925,0.92905,-0.00619,0.0,9.74942,0
1.33,-0.92564,9.5253,-1.83662,0.02179,-0.00172,0.01972,0.92905,-0.00605,0.0,9.74481,0
1.34,-0.91906,9.5294,-1.83959,0.02102,-0.00085,0.01888,0.92905,-0.00591,0.0,9.74876,0
1.35,-0.90732,9.53701,-1.84968,0.01993,0.00103,0.0174,0.92904,-0.00578,0.0,9.75701,0
1.36,-0.89558,9.54462,-1.85978,0.01884,0.0029,0.01591,0.92904,-0.00564,0.0,9.76527,0
1.37,-0.88784,9.5511,-1.8684,0.018,0.003,0.01444,0.92904,-0.00552,0.0,9.77255,0
1.38,-0.88812,9.55533,-1.87407,0.01767,-0.00046,0.01298,0.92904,-0.00545,0.0,9.77779,0
1.39,-0.8884,9.55956,-1.87973,0.01734,-0.00393,0.01153,0.92903,-0.00537,0.0,9.78304,0
1.4,-0.88868,9.56379,-1.8854,0.01702,-0.00739,0.01008,0.92903,-0.00529,0.0,9.78829,0
1.41,-0.89342,9.55546,-1.874,0.01522,-0.00701,0.01012,0.92903,-0.00517,0.0,9.77839,0
1.42,-0.89817,9.54713,-1.86259,0.01342,-0.00663,0.01017,0.92903,-0.00504,0.0,9.7685,0
1.43,-0.90291,9.53879,-1.85119,0.01163,-0.00625,0.01021,0.92903,-0.00492,0.0,9.75862,0
1.44,-0.90011,9.53096,-1.84425,0.01118,-0.00633,0.0105,0.92902,-0.00482,0.0,9.7494,0
1.45,-0.89354,9.52339,-1.83955,0.01141,-0.00665,0.0109,0.92902,-0.00473,0.0,9.7405,0
1.46,-0.88697,9.51582,-1.83485,0.01164,-0.00696,0.01131,0.92902,-0.00464,0.0,9.73161,0
1.47,-0.88346,9.51052,-1.83244,0.0117,-0.00685,0.01173,0.92902,-0.00455,0.0,9.72565,0
1.48,-0.8861,9.50976,-1.83461,0.01141,-0.00591,0.01218,0.92902,-0.00446,0.0,9.72556,0
1.49,-0.88873,9.50899,-1.83679,0.01112,-0.00496,0.01262,0.92901,-0.00436,0.0,9.72546,0
1.5,-0.89137,9.50823,-1.83896,0.01082,-0.00401,0.01307,0.92901,-0.00427,0.0,9.72537,0
1.51,-0.88528,9.50388,-1.82916,0.0089,-0.00359,0.01329,0.92901,-0.00418,0.0,9.71871,0
1.52,-0.8792,9.49953,-1.81936,0.00697,-0.00318,0.01352,0.92901,-0.0041,0.0,9.71206,0
1.53,-0.87311,9.49518,-1.80957,0.00504,-0.00276,0.01374,0.92901,-0.00402,0.0,9.70542,0
1.54,-0.87306,9.49387,-1.81044,0.00447,-0.00272,0.01411,0.929,-0.00394,0.0,9.70431,0
1.55,-0.87603,9.49409,-1.81665,0.00458,-0.00288,0.01454,0.929,-0.00386,0.0,9.70595,0
1.56,-0.87899,9.49431,-1.82286,0.00469,-0.00304,0.01497,0.929,-0.00379,0.0,9.70759,0
1.57,-0.88159,9.49436,-1.82651,0.00508,-0.00268,0.01528,0.929,-0.00371,0.0,9.70856,0
1.58,-0.88345,9.49407,-1.82501,0.00602,-0.0013,0.01535,0.929,-0.00364,0.0,9.70816,0
1.59,-0.8853,9.49378,-1.82352,0.00697,7e-05,0.01542,0.92899,-0.00357,0.0,9.70777,0
1.6,-0.88716,9.49349,-1.82202,0.00791,0.00145,0.0155,0.92899,-0.0035,0.0,9.70738,0
1.61,-0.89563,9.49403,-1.82162,0.00894,0.0016,0.01496,0.92899,-0.00342,0.0,9.70861,0
1.62,-0.9041,9.49457,-1.82121,0.00996,0.00175,0.01442,0.92899,-0.00334,0.0,9.70984,0
1.63,-0.91257,9.49511,-1.82081,0.01099,0.00189,0.01389,0.92898,-0.00327,0.0,9.71109,0
1.64,-0.91145,9.49539,-1.82167,0.01127,0.00187,0.01414,0.92898,-0.00321,0.0,9.71142,0
1.65,-0.90554,9.49554,-1.82315,0.01119,0.00177,0.01478,0.92898,-0.00316,0.0,9.71129,0
1.66,-0.89963,9.49568,-1.82464,0.0111,0.00167,0.01543,0.92898,-0.0031,0.0,9.71116,0
1.67,-0.89508,9.4985,-1.82459,0.01109,0.00189,0.01551,0.92898,-0.00305,0.0,9.71348,0
1.68,-0.89325,9.50663,-1.82148,0.01126,0.00276,0.01446,0.92897,-0.003,0.0,9.72069,0
1.69,-0.89143,9.51477,-1.81837,0.01144,0.00363,0.01342,0.92897,-0.00294,0.0,9.7279,0
1.7,-0.8896,9.52291,-1.81526,0.01161,0.00451,0.01237,0.92897,-0.00289,0.0,9.73511,0
1.71,-0.89129,9.52365,-1.81969,0.01233,0.00355,0.01413,0.92897,-0.00283,0.0,9.73681,0
1.72,-0.89298,9.52439,-1.82411,0.01306,0.0026,0.01589,0.92897,-0.00276,0.0,9.73852,0
1.73,-0.89467,9.52513,-1.82853,0.01379,0.00165,0.01766,0.92896,-0.0027,0.0,9.74023,0
1.74,-0.90108,9.52154,-1.82853,0.01454,0.00188,0.01808,0.92896,-0.00265,0.0,9.73731,0
1.75,-0.90984,9.5158,-1.82631,0.01531,0.0027,0.01783,0.92896,-0.00261,0.0,9.73209,0
1.76,-0.91861,9.51005,-1.8241,0.01609,0.00352,0.01758,0.92896,-0.00257,0.0,9.72688,0
1.77,-0.92483,9.50536,-1.82409,0.01626,0.0044,0.01707,0.92896,-0.00253,0.0,9.72289,0
1.78,-0.92596,9.5028,-1.82848,0.01524,0.00541,0.01601,0.92896,-0.00248,0.0,9.72132,0
1.79,-0.92709,9.50024,-1.83288,0.01423,0.00641,0.01496,0.92895,-0.00243,0.0,9.71974,0
1.8,-0.92823,9.49767,-1.83727,0.01321,0.00742,0.01391,0.92895,-0.00238,0.0,9.71818,0
1.81,-0.9338,9.49899,-1.83873,0.01256,0.00622,0.01352,0.92895,-0.00233,0.0,9.72028,0
1.82,-0.93936,9.50031,-1.84019,0.0119,0.00503,0.01312,0.92895,-0.00229,0.0,9.72238,0
1.83,-0.94493,9.50163,-1.84165,0.01124,0.00384,0.01273,0.92895,-0.00224,0.0,9.72448,0
1.84,-0.94553,9.50201,-1.84632,0.01126,0.00235,0.01121,0.92894,-0.0022,0.0,9.7258,0
1.85,-0.94364,9.50192,-1.8526,0.01162,0.00072,0.00912,0.92894,-0.00216,0.0,9.72672,0
1.86,-0.94175,9.50183,-1.85888,0.01198,-0.00091,0.00703,0.92894,-0.00212,0.0,9.72764,0
1.87,-0.94176,9.50227,-1.86338,0.01276,-0.00157,0.00556,0.92894,-0.00208,0.0,9.72894,0
1.88,-0.94557,9.5038,-1.86434,0.01439,-0.00028,0.00532,0.92894,-0.00206,0.0,9.73098,0
1.89,-0.94937,9.50532,-1.86531,0.01602,0.00101,0.00508,0.92893,-0.00204,0.0,9.73302,0
1.9,-0.95317,9.50684,-1.86627,0.01765,0.0023,0.00484,0.92893,-0.00202,0.0,9.73507,0
1.91,-0.95226,9.50343,-1.86862,0.01696,0.00269,0.00392,0.92893,-0.00199,0.0,9.7321,0
1.92,-0.95134,9.50003,-1.87096,0.01627,0.00309,0.00299,0.92893,-0.00195,0.0,9.72914,0
1.93,-0.95042,9.49662,-1.87331,0.01559,0.00349,0.00206,0.92893,-0.00191,0.0,9.72617,0
1.94,-0.94756,9.50349,-1.87569,0.0155,0.00409,0.00158,0.92893,-0.00187,0.0,9.73306,0
1.95,-0.94373,9.5155,-1.87809,0.01571,0.00478,0.00132,0.92892,-0.00184,0.0,9.74488,0
1.96,-0.9399,9.52751,-1.88049,0.01593,0.00548,0.00105,0.92892,-0.00181,0.0,9.7567,0
1.97,-0.93694,9.53563,-1.88233,0.0157,0.00588,0.00113,0.92892,-0.00178,0.0,9.7647,0
1.98,-0.9357,9.53599,-1.88305,0.01459,0.00569,0.0019,0.92892,-0.00175,0.0,9.76506,0
1.99,-0.93447,9.53634,-1.88376,0.01348,0.00549,0.00266,0.92892,-0.00173,0.0,9.76543,0
2.0,-0.93324,9.53669,-1.88447,0.01237,0.0053,0.00343,0.92891,-0.0017,0.0,9.76579,0
2.01,-0.9252,9.54239,-1.87329,0.01154,0.00606,0.00367,0.92891,-0.00168,0.0,9.76844,0
2.02,-0.91717,9.54808,-1.86211,0.0107,0.00683,0.0039,0.92891,-0.00165,0.0,9.7711,0
2.03,-0.90913,9.55378,-1.85092,0.00986,0.00759,0.00414,0.92891,-0.00163,0.0,9.77379,0
2.04,-0.89967,9.55179,-1.85278,0.00927,0.00604,0.00381,0.92891,-0.0016,0.0,9.77133,0
2.05,-0.88951,9.54595,-1.86115,0.0088,0.00334,0.00321,0.92891,-0.00157,0.0,9.76628,0
2.06,-0.87934,9.54012,-1.86952,0.00833,0.00064,0.00261,0.9289,-0.00153,0.0,9.76126,0
2.07,-0.87555,9.53658,-1.87513,0.00879,-0.00073,0.00204,0.9289,-0.0015,0.0,9.75854,0
2.08,-0.88452,9.53763,-1.8752,0.01112,0.00056,0.00153,0.9289,-0.00149,0.0,9.76038,0
2.09,-0.89349,9.53867,-1.87528,0.01345,0.00185,0.00102,0.9289,-0.00148,0.0,9.76224,0
2.1,-0.90246,9.53972,-1.87535,0.01578,0.00314,0.00051,0.9289,-0.00146,0.0,9.7641,0
2.11,-0.91004,9.54245,-1.88505,0.0175,0.00437,0.00023,0.9289,-0.00145,0.0,9.76933,0
2.12,-0.91763,9.54518,-1.89474,0.01923,0.0056,-4e-05,0.92889,-0.00143,0.0,9.77458,0
2.13,-0.92521,9.54791,-1.90443,0.02095,0.00683,-0.00031,0.92889,-0.00141,0.0,9.77985,0
2.14,-0.93466,9.55351,-1.908,0.02197,0.00587,-0.00065,0.92889,-0.0014,0.0,9.78691,0
2.15,-0.94504,9.56055,-1.9085,0.02263,0.00381,-0.00101,0.92889,-0.00138,0.0,9.79488,0
2.16,-0.95543,9.56759,-1.909,0.02329,0.00176,-0.00137,0.92889,-0.00136,0.0,9.80285,0
2.17,-0.96165,9.57157,-1.91014,0.02368,5e-05,-0.00153,0.92889,-0.00135,0.0,9.80756,0
2.18,-0.95956,9.56941,-1.91255,0.02351,-0.00096,-0.00132,0.92888,-0.00134,0.0,9.80572,0
2.19,-0.95747,9.56726,-1.91495,0.02335,-0.00196,-0.0011,0.92888,-0.00132,0.0,9.80389,0
2.2,-0.95537,9.5651,-1.91736,0.02319,-0.00297,-0.00088,0.92888,-0.00131,0.0,9.80205,0
2.21,-0.95341,9.56624,-1.91178,0.02115,-0.00424,0.00078,0.92888,-0.00128,0.0,9.80188,0
2.22,-0.95144,9.56738,-1.90619,0.0191,-0.00552,0.00245,0.92888,-0.00124,0.0,9.80172,0
2.23,-0.94948,9.56852,-1.90061,0.01706,-0.0068,0.00412,0.92888,-0.0012,0.0,9.80155,0
2.24,-0.94671,9.5646,-1.89319,0.01626,-0.00591,0.00466,0.92887,-0.00119,0.0,9.79602,0
2.25,-0.94355,9.55815,-1.88486,0.01608,-0.00395,0.00465,0.92887,-0.00119,0.0,9.78781,0
2.26,-0.94039,9.55169,-1.87653,0.0159,-0.00199,0.00463,0.92887,-0.00119,0.0,9.7796,0
2.27,-0.93416,9.55057,-1.87228,0.01603,-0.00038,0.00509,0.92887,-0.00118,0.0,9.77709,0
2.28,-0.9218,9.56013,-1.87618,0.01682,0.00054,0.00647,0.92887,-0.00117,0.0,9.786,0
2.29,-0.90944,9.56968,-1.88009,0.0176,0.00145,0.00785,0.92887,-0.00117,0.0,9.79492,0
2.3,-0.89708,9.57923,-1.884,0.01839,0.00237,0.00924,0.92886,-0.00116,0.0,9.80387,0
2.31,-0.90495,9.58033,-1.87959,0.01603,0.00109,0.0066,0.92886,-0.00115,0.0,9.80482,0
2.32,-0.91282,9.58143,-1.87517,0.01367,-0.00019,0.00396,0.92886,-0.00114,0.0,9.80578,0
2.33,-0.92068,9.58254,-1.87076,0.01131,-0.00146,0.00132,0.92886,-0.00113,0.0,9.80675,0
2.34,-0.92471,9.58365,-1.86507,0.01064,-0.00055,-0.00043,0.92886,-0.00111,0.0,9.80713,0
2.35,-0.9268,9.58477,-1.85873,0.01081,0.00147,-0.00173,0.92886,-0.00109,0.0,9.80722,0
2.36,-0.9289,9.58589,-1.8524,0.01098,0.00349,-0.00303,0.92885,-0.00107,0.0,9.80732,0
2.37,-0.93353,9.58545,-1.84873,0.0111,0.00401,-0.00376,0.92885,-0.00106,0.0,9.80664,0
2.38,-0.94322,9.58191,-1.85039,0.01112,0.00156,-0.00337,0.92885,-0.00105,0.0,9.80442,0
2.39,-0.95291,9.57837,-1.85204,0.01113,-0.00089,-0.00297,0.92885,-0.00104,0.0,9.80221,0
2.4,-0.96259,9.57483,-1.8537,0.01114,-0.00334,-0.00257,0.92885,-0.00103,0.0,9.80001,0
2.41,-0.96737,9.57633,-1.8554,0.01019,-0.0035,-0.00331,0.92885,-0.00103,0.0,9.80226,0
2.42,-0.97216,9.57782,-1.8571,0.00923,-0.00365,-0.00405,0.92884,-0.00102,0.0,9.80451,0
2.43,-0.97694,9.57931,-1.8588,0.00827,-0.0038,-0.00479,0.92884,-0.00102,0.0,9.80677,0
2.44,-0.97613,9.58169,-1.86536,0.00851,-0.00394,-0.00523,0.92884,-0.00102,0.0,9.81026,0
2.45,-0.97252,9.58451,-1.87435,0.00934,-0.00408,-0.00551,0.92884,-0.00101,0.0,9.81437,0
2.46,-0.96892,9.58733,-1.88334,0.01017,-0.00422,-0.00579,0.92884,-0.00101,0.0,9.81848,0
2.47,-0.9657,9.58614,-1.89066,0.01031,-0.00345,-0.00575,0.92884,-0.001,0.0,9.81841,0
2.48,-0.96325,9.57694,-1.89464,0.00909,-0.00087,-0.00509,0.92884,-0.00098,0.0,9.80996,0
2.49,-0.9608,9.56773,-1.89863,0.00787,0.00171,-0.00443,0.92883,-0.00096,0.0,9.8015,0
2.5,-0.95835,9.55853,-1.90261,0.00664,0.00428,-0.00376,0.92883,-0.00094,0.0,9.79305,0
2.51,-0.95958,9.5588,-1.90339,0.00677,0.0048,-0.00247,0.92883,-0.00095,0.0,9.79358,0
2.52,-0.9608,9.55906,-1.90416,0.00691,0.00531,-0.00119,0.92883,-0.00095,0.0,9.79411,0
2.53,-0.96202,9.55933,-1.90494,0.00704,0.00582,0.0001,0.92883,-0.00095,0.0,9.79464,0
2.54,-0.96244,9.55658,-1.90594,0.00565,0.00471,0.00161,0.92883,-0.00094,0.0,9.7922,0
2.55,-0.96246,9.55233,-1.90705,0.00349,0.00279,0.00324,0.92883,-0.00093,0.0,9.78827,0
2.56,-0.96249,9.54808,-1.90817,0.00134,0.00086,0.00487,0.92882,-0.00091,0.0,9.78434,0
2.57,-0.95821,9.54482,-1.90765,0.0003,0.00075,0.00628,0.92882,-0.00091,0.0,9.78064,0
2.58,-0.94535,9.54354,-1.90388,0.00149,0.00426,0.00725,0.92882,-0.00091,0.0,9.77741,0
2.59,-0.93249,9.54226,-1.90011,0.00268,0.00777,0.00822,0.92882,-0.00091,0.0,9.77418,0
2.6,-0.91962,9.54098,-1.89633,0.00388,0.01128,0.00919,0.92882,-0.00091,0.0,9.77098,0
2.61,-0.9201,9.53605,-1.90561,0.00466,0.00979,0.00718,0.92882,-0.0009,0.0,9.76802,0
2.62,-0.92058,9.53112,-1.9149,0.00544,0.00829,0.00516,0.92881,-0.00089,0.0,9.76507,0
2.63,-0.92107,9.52619,-1.92418,0.00622,0.0068,0.00315,0.92881,-0.00088,0.0,9.76213,0
2.64,-0.92322,9.52162,-1.91951,0.00736,0.0061,0.00355,0.92881,-0.00088,0.0,9.75695,0
2.65,-0.92621,9.51723,-1.90786,0.0087,0.00578,0.00515,0.92881,-0.00088,0.0,9.75066,0
2.66,-0.92921,9.51284,-1.89621,0.01003,0.00547,0.00676,0.92881,-0.00088,0.0,9.74439,0
2.67,-0.93058,9.50926,-1.88566,0.01113,0.00481,0.00763,0.92881,-0.00088,0.0,9.73898,0
2.68,-0.92872,9.50732,-1.87732,0.01176,0.00344,0.00704,0.92881,-0.00087,0.0,9.73529,0
2.69,-0.92686,9.50537,-1.86897,0.0124,0.00207,0.00644,0.9288,-0.00086,0.0,9.73161,0
2.7,-0.925,9.50343,-1.86063,0.01303,0.00071,0.00585,0.9288,-0.00085,0.0,9.72794,0
2.71,-0.9287,9.49904,-1.85798,0.015,-0.00071,0.00622,0.9288,-0.00085,0.0,9.7235,0
2.72,-0.9324,9.49465,-1.85533,0.01697,-0.00212,0.00658,0.9288,-0.00085,0.0,9.71906,0
2.73,-0.93611,9.49027,-1.85269,0.01894,-0.00354,0.00695,0.9288,-0.00086,0.0,9.71462,0
2.74,-0.93838,9.49011,-1.85599,0.01859,-0.00372,0.00625,0.9288,-0.00085,0.0,9.71532,0
2.75,-0.93994,9.49208,-1.86227,0.01709,-0.00328,0.00502,0.9288,-0.00084,0.0,9.7186,0
2.76,-0.9415,9.49405,-1.86855,0.01558,-0.00284,0.00379,0.92879,-0.00084,0.0,9.72187,0
2.77,-0.94109,9.49674,-1.87362,0.01418,-0.00266,0.00322,0.92879,-0.00083,0.0,9.72544,0
2.78,-0.93673,9.50087,-1.87628,0.01298,-0.003,0.00399,0.92879,-0.00082,0.0,9.72957,0
2.79,-0.93237,9.50501,-1.87894,0.01179,-0.00334,0.00477,0.92879,-0.00082,0.0,9.7337,0
2.8,-0.92801,9.50915,-1.8816,0.01059,-0.00367,0.00554,0.92879,-0.00081,0.0,9.73784,0
2.81,-0.92302,9.50704,-1.88191,0.01149,-0.00508,0.0059,0.92879,-0.00082,0.0,9.73537,0
2.82,-0.91803,9.50493,-1.88222,0.01238,-0.00648,0.00626,0.92879,-0.00082,0.0,9.7329,0
2.83,-0.91304,9.50283,-1.88252,0.01328,-0.00788,0.00662,0.92878,-0.00082,0.0,9.73043,0
2.84,-0.91319,9.50708,-1.88605,0.01219,-0.00903,0.00656,0.92878,-0.00083,0.0,9.73528,0
2.85,-0.91592,9.51452,-1.89118,0.01011,-0.01005,0.0063,0.92878,-0.00083,0.0,9.74379,0
2.86,-0.91865,9.52195,-1.89631,0.00803,-0.01108,0.00603,0.92878,-0.00083,0.0,9.75231,0
2.87,-0.91938,9.52602,-1.89815,0.00616,-0.01146,0.00533,0.92878,-0.00083,0.0,9.7567,0
2.88,-0.91613,9.52334,-1.89343,0.00471,-0.01058,0.00376,0.92878,-0.00082,0.0,9.75287,0
2.89,-0.91289,9.52066,-1.88871,0.00327,-0.00969,0.00218,0.92878,-0.0008,0.0,9.74903,0
2.9,-0.90964,9.51799,-1.88398,0.00183,-0.0088,0.00061,0.92877,-0.00079,0.0,9.7452,0
2.91,-0.91205,9.52158,-1.88921,0.00211,-0.00694,9e-05,0.92877,-0.00079,0.0,9.74994,0
2.92,-0.91445,9.52517,-1.89444,0.0024,-0.00509,-0.00042,0.92877,-0.00079,0.0,9.75469,0
2.93,-0.91686,9.52876,-1.89966,0.00269,-0.00323,-0.00094,0.92877,-0.00079,0.0,9.75944,0
2.94,-0.91316,9.52736,-1.89845,0.00424,-0.00418,-0.00153,0.92877,-0.00079,0.0,9.75749,0
2.95,-0.90641,9.52345,-1.89402,0.00643,-0.00654,-0.00217,0.92877,-0.00078,0.0,9.75218,0
2.96,-0.89966,9.51955,-1.88959,0.00862,-0.0089,-0.0028,0.92877,-0.00078,0.0,9.74689,0
2.97,-0.89382,9.51778,-1.88586,0.0099,-0.01015,-0.00315,0.92876,-0.00077,0.0,9.7439,0
2.98,-0.88981,9.52029,-1.88353,0.00936,-0.00917,-0.00294,0.92876,-0.00078,0.0,9.74553,0
2.99,-0.8858,9.52279,-1.8812,0.00881,-0.00819,-0.00273,0.92876,-0.00078,0.0,9.74716,0
3.0,-0.88179,9.52529,-1.87887,0.00827,-0.00721,-0.00252,0.92876,-0.00079,0.0,9.74879,0
3.01,-0.87514,9.52996,-1.87716,0.00807,-0.00709,-0.00266,0.92876,-0.00079,0.0,9.75242,0
3.02,-0.86849,9.53463,-1.87545,0.00787,-0.00697,-0.00279,0.92876,-0.00079,0.0,9.75606,0
3.03,-0.86184,9.5393,-1.87375,0.00766,-0.00685,-0.00293,0.92876,-0.00079,0.0,9.75971,0
3.04,-0.85922,9.54076,-1.87215,0.00927,-0.0058,-0.00298,0.92876,-0.00078,0.0,9.7606,0
3.05,-0.85862,9.5406,-1.8706,0.01179,-0.00428,-0.00298,0.92875,-0.00077,0.0,9.7601,0
3.06,-0.85802,9.54045,-1.86906,0.01431,-0.00276,-0.00299,0.92875,-0.00075,0.0,9.7596,0
3.07,-0.85577,9.54038,-1.8722,0.01552,-0.00234,-0.003,0.92875,-0.00075,0.0,9.75994,0
3.08,-0.85022,9.54048,-1.88472,0.01411,-0.00411,-0.00302,0.92875,-0.00076,0.0,9.76196,0
3.09,-0.84467,9.54057,-1.89724,0.01271,-0.00588,-0.00305,0.92875,-0.00076,0.0,9.76399,0
3.1,-0.83911,9.54067,-1.90976,0.0113,-0.00765,-0.00307,0.92875,-0.00077,0.0,9.76604,0
3.11,-0.84153,9.55288,-1.90547,0.01109,-0.00608,-0.0051,0.92875,-0.00077,0.0,9.77734,0
3.12,-0.84395,9.56509,-1.90118,0.01087,-0.00451,-0.00713,0.92874,-0.00077,0.0,9.78865,0
3.13,-0.84636,9.5773,-1.89689,0.01066,-0.00294,-0.00916,0.92874,-0.00077,0.0,9.79996,0
3.14,-0.84742,9.58418,-1.90012,0.01146,-0.00198,-0.00957,0.92874,-0.00077,0.0,9.8074,0
3.15,-0.8478,9.5884,-1.90709,0.01276,-0.00132,-0.00918,0.92874,-0.00077,0.0,9.8129,0
3.16,-0.84817,9.59261,-1.91407,0.01407,-0.00066,-0.00878,0.92874,-0.00077,0.0,9.81841,0
3.17,-0.84775,9.59944,-1.91713,0.01494,-0.00035,-0.00858,0.92874,-0.00076,0.0,9.82565,0
3.18,-0.84574,9.61149,-1.91236,0.01495,-0.00075,-0.00877,0.92874,-0.00075,0.0,9.83632,0
3.19,-0.84373,9.62355,-1.90758,0.01496,-0.00115,-0.00895,0.92873,-0.00074,0.0,9.847,0
3.2,-0.84172,9.6356,-1.90281,0.01498,-0.00155,-0.00914,0.92873,-0.00073,0.0,9.85769,0
3.21,-0.83863,9.62689,-1.90003,0.01421,-0.00081,-0.00799,0.92873,-0.00074,0.0,9.84837,0
3.22,-0.83554,9.61817,-1.89726,0.01345,-8e-05,-0.00685,0.92873,-0.00074,0.0,9.83905,0
3.23,-0.83245,9.60946,-1.89448,0.01268,0.00065,-0.0057,0.92873,-0.00075,0.0,9.82974,0
3.24,-0.82893,9.60355,-1.89337,0.01168,0.0006,-0.00471,0.92873,-0.00075,0.0,9.82345,0
3.25,-0.82519,9.59905,-1.89308,0.01057,0.00017,-0.00379,0.92873,-0.00076,0.0,9.81868,0
3.26,-0.82144,9.59455,-1.8928,0.00945,-0.00026,-0.00287,0.92873,-0.00076,0.0,9.81391,0
3.27,-0.81847,9.58967,-1.8903,0.00926,-0.00035,-0.00149,0.92872,-0.00076,0.0,9.80841,0
3.28,-0.81702,9.58403,-1.88339,0.01093,0.00025,0.00082,0.92872,-0.00076,0.0,9.80144,0
3.29,-0.81558,9.57838,-1.87648,0.0126,0.00085,0.00314,0.92872,-0.00075,0.0,9.79447,0
3.3,-0.81413,9.57274,-1.86956,0.01426,0.00145,0.00545,0.92872,-0.00075,0.0,9.78751,0
3.31,-0.82165,9.56676,-1.87938,0.01568,0.00217,0.00511,0.92872,-0.00075,0.0,9.78418,0
3.32,-0.82917,9.56079,-1.88919,0.01709,0.00288,0.00477,0.92872,-0.00075,0.0,9.78086,0
3.33,-0.83669,9.55481,-1.89901,0.01851,0.0036,0.00443,0.92872,-0.00075,0.0,9.77756,0
3.34,-0.83882,9.55035,-1.89096,0.01871,0.00381,0.00471,0.92872,-0.00075,0.0,9.77183,0
3.35,-0.83825,9.54665,-1.87397,0.01831,0.00377,0.00529,0.92871,-0.00075,0.0,9.76489,0
3.36,-0.83768,9.54295,-1.85698,0.01791,0.00372,0.00588,0.92871,-0.00075,0.0,9.75797,0
3.37,-0.8367,9.54219,-1.8475,0.01766,0.00432,0.00664,0.92871,-0.00075,0.0,9.75535,0
3.38,-0.83492,9.54731,-1.85306,0.01772,0.0062,0.00775,0.92871,-0.00075,0.0,9.76126,0
3.39,-0.83313,9.55243,-1.85862,0.01779,0.00808,0.00886,0.92871,-0.00075,0.0,9.76717,0
3.4,-0.83135,9.55755,-1.86418,0.01785,0.00996,0.00997,0.92871,-0.00075,0.0,9.77308,0
3.41,-0.82338,9.55736,-1.8694,0.01725,0.00941,0.01053,0.92871,-0.00075,0.0,9.77321,0
3.42,-0.81542,9.55717,-1.87461,0.01665,0.00886,0.0111,0.92871,-0.00075,0.0,9.77336,0
3.43,-0.80745,9.55697,-1.87983,0.01606,0.00831,0.01167,0.9287,-0.00075,0.0,9.77351,0
3.44,-0.81338,9.56476,-1.88069,0.01533,0.00706,0.01016,0.9287,-0.00075,0.0,9.78178,0
3.45,-0.82624,9.57655,-1.87936,0.01454,0.00545,0.00761,0.9287,-0.00074,0.0,9.79413,0
3.46,-0.83911,9.58833,-1.87804,0.01375,0.00385,0.00507,0.9287,-0.00073,0.0,9.80649,0
3.47,-0.84599,9.59641,-1.87906,0.01271,0.00261,0.00392,0.9287,-0.00072,0.0,9.81518,0
3.48,-0.84089,9.5971,-1.88475,0.01119,0.00211,0.00559,0.9287,-0.00073,0.0,9.81651,0
3.49,-0.8358,9.5978,-1.89045,0.00966,0.00162,0.00726,0.9287,-0.00073,0.0,9.81784,0
3.5,-0.8307,9.59849,-1.89614,0.00813,0.00113,0.00892,0.92869,-0.00074,0.0,9.81918,0
3.51,-0.83266,9.59001,-1.89471,0.00809,-0.00177,0.00834,0.92869,-0.00075,0.0,9.81079,0
3.52,-0.83463,9.58154,-1.89329,0.00806,-0.00466,0.00776,0.92869,-0.00076,0.0,9.8024,0
3.53,-0.8366,9.57307,-1.89186,0.00802,-0.00756,0.00717,0.92869,-0.00077,0.0,9.79401,0
3.54,-0.83814,9.57451,-1.8823,0.00898,-0.00824,0.00591,0.92869,-0.00077,0.0,9.79371,0
3.55,-0.83947,9.58089,-1.86868,0.01044,-0.00782,0.00431,0.92869,-0.00076,0.0,9.79746,0
3.56,-0.84081,9.58728,-1.85506,0.01191,-0.00739,0.00271,0.92869,-0.00075,0.0,9.80123,0
3.57,-0.83659,9.59198,-1.846,0.01284,-0.00683,0.00158,0.92869,-0.00075,0.0,9.80376,0
3.58,-0.82125,9.59333,-1.84607,0.0127,-0.006,0.00139,0.92869,-0.00074,0.0,9.8038,0
3.59,-0.80592,9.59468,-1.84614,0.01257,-0.00517,0.0012,0.92868,-0.00074,0.0,9.80386,0
3.6,-0.79059,9.59603,-1.84621,0.01243,-0.00434,0.00101,0.92868,-0.00073,0.0,9.80395,0
3.61,-0.79689,9.5937,-1.84641,0.01177,-0.0047,0.00114,0.92868,-0.00074,0.0,9.80221,0
3.62,-0.80319,9.59138,-1.8466,0.01111,-0.00505,0.00127,0.92868,-0.00074,0.0,9.80049,0
3.63,-0.80949,9.58905,-1.8468,0.01044,-0.0054,0.0014,0.92868,-0.00074,0.0,9.79877,0
3.64,-0.81346,9.59505,-1.85692,0.01107,-0.00429,-7e-05,0.92868,-0.00074,0.0,9.80688,0
3.65,-0.81625,9.60522,-1.872,0.01233,-0.00244,-0.00232,0.92868,-0.00074,0.0,9.81993,0
3.66,-0.81905,9.61539,-1.88707,0.01359,-0.0006,-0.00458,0.92868,-0.00074,0.0,9.83299,0
3.67,-0.82173,9.62118,-1.89853,0.01408,0.00025,-0.00529,0.92867,-0.00074,0.0,9.84108,0
3.68,-0.82418,9.61822,-1.90272,0.01302,-0.0009,-0.00287,0.92867,-0.00074,0.0,9.8392,0
3.69,-0.82663,9.61526,-1.90691,0.01196,-0.00205,-0.00046,0.92867,-0.00074,0.0,9.83732,0
3.7,-0.82909,9.6123,-1.91111,0.01091,-0.0032,0.00195,0.92867,-0.00074,0.0,9.83545,0
3.71,-0.82347,9.61963,-1.90182,0.00972,-0.00348,0.00242,0.92867,-0.00073,0.0,9.84034,0
3.72,-0.81786,9.62696,-1.89252,0.00853,-0.00376,0.00289,0.92867,-0.00073,0.0,9.84525,0
3.73,-0.81224,9.63429,-1.88323,0.00734,-0.00405,0.00336,0.92867,-0.00073,0.0,9.85017,0
3.74,-0.81553,9.63835,-1.87938,0.0069,-0.00337,0.00373,0.92867,-0.00073,0.0,9.85368,0
3.75,-0.82325,9.64077,-1.87826,0.00682,-0.00221,0.00404,0.92866,-0.00074,0.0,9.85648,0
3.76,-0.83098,9.6432,-1.87713,0.00675,-0.00105,0.00436,0.92866,-0.00075,0.0,9.85928,0
3.77,-0.83646,9.64632,-1.87755,0.00703,-2e-05,0.00437,0.92866,-0.00076,0.0,9.86288,0
3.78,-0.83744,9.65085,-1.88107,0.00804,0.00073,0.00378,0.92866,-0.00075,0.0,9.86806,0
3.79,-0.83842,9.65538,-1.88459,0.00904,0.00149,0.0032,0.92866,-0.00074,0.0,9.87325,0
3.8,-0.83939,9.65991,-1.88811,0.01004,0.00224,0.00261,0.92866,-0.00074,0.0,9.87843,0
3.81,-0.83608,9.64959,-1.87903,0.00993,0.00159,0.00362,0.92866,-0.00073,0.0,9.86633,0
3.82,-0.83276,9.63928,-1.86996,0.00981,0.00094,0.00463,0.92866,-0.00072,0.0,9.85423,0
3.83,-0.82944,9.62896,-1.86088,0.0097,0.00029,0.00563,0.92866,-0.00072,0.0,9.84214,0
3.84,-0.83036,9.61974,-1.863,0.01019,-0.00079,0.007,0.92865,-0.00072,0.0,9.8336,0
3.85,-0.83341,9.61106,-1.87071,0.01097,-0.00209,0.00854,0.92865,-0.00073,0.0,9.82683,0
3.86,-0.83645,9.60238,-1.87843,0.01175,-0.00339,0.01008,0.92865,-0.00074,0.0,9.82007,0
3.87,-0.84192,9.60039,-1.88201,0.01222,-0.00431,0.011,0.92865,-0.00075,0.0,9.81928,0
3.88,-0.85222,9.61176,-1.87732,0.01204,-0.0045,0.01069,0.92865,-0.00074,0.0,9.83039,0
3.89,-0.86252,9.62314,-1.87263,0.01187,-0.00469,0.01039,0.92865,-0.00074,0.0,9.84152,0
3.9,-0.87282,9.63452,-1.86794,0.0117,-0.00488,0.01008,0.92865,-0.00074,0.0,9.85267,0
3.91,-0.86883,9.63985,-1.86466,0.01183,-0.00487,0.00935,0.92865,-0.00073,0.0,9.85691,0
3.92,-0.86484,9.64519,-1.86139,0.01195,-0.00487,0.00862,0.92864,-0.00072,0.0,9.86115,0
3.93,-0.86085,9.65052,-1.85811,0.01208,-0.00487,0.00788,0.92864,-0.00071,0.0,9.8654,0
3.94,-0.85589,9.64422,-1.8613,0.01262,-0.00445,0.00719,0.92864,-0.00072,0.0,9.8594,0
3.95,-0.85045,9.6321,-1.86771,0.01338,-0.00382,0.00651,0.92864,-0.00073,0.0,9.84829,0
3.96,-0.845,9.61998,-1.87412,0.01413,-0.0032,0.00583,0.92864,-0.00074,0.0,9.83719,0
3.97,-0.84062,9.61281,-1.87827,0.01427,-0.00263,0.00491,0.92864,-0.00075,0.0,9.8306,0
3.98,-0.83836,9.61553,-1.87789,0.01319,-0.00218,0.00352,0.92864,-0.00074,0.0,9.83299,0
3.99,-0.8361,9.61825,-1.8775,0.0121,-0.00173,0.00213,0.92864,-0.00073,0.0,9.83539,0
4.0,-0.83384,9.62097,-1.87712,0.01102,-0.00128,0.00075,0.92864,-0.00071,0.0,9.83779,0
4.01,-0.82944,9.61127,-1.8683,0.01156,-0.00082,0.00181,0.92863,-0.00072,0.0,9.82624,0
4.02,-0.82504,9.60156,-1.85948,0.01209,-0.00036,0.00288,0.92863,-0.00073,0.0,9.8147,0
4.03,-0.82064,9.59185,-1.85066,0.01263,9e-05,0.00394,0.92863,-0.00074,0.0,9.80316,0
4.04,-0.81212,9.59416,-1.85414,0.01182,-0.00017,0.00415,0.92863,-0.00075,0.0,9.80537,0
4.05,-0.80154,9.60247,-1.86378,0.01034,-0.00078,0.00392,0.92863,-0.00075,0.0,9.81445,0
4.06,-0.79096,9.61078,-1.87342,0.00885,-0.0014,0.0037,0.92863,-0.00075,0.0,9.82356,0
4.07,-0.78344,9.61511,-1.87829,0.00767,-0.00196,0.00297,0.92863,-0.00074,0.0,9.82813,0
4.08,-0.78206,9.61148,-1.87365,0.00709,-0.0024,0.00123,0.92863,-0.00074,0.0,9.82358,0
4.09,-0.78067,9.60786,-1.86901,0.00651,-0.00285,-0.00051,0.92863,-0.00073,0.0,9.81904,0
4.1,-0.77928,9.60423,-1.86437,0.00594,-0.00329,-0.00225,0.92862,-0.00073,0.0,9.8145,0
4.11,-0.78629,9.59789,-1.86778,0.00746,-0.004,0.0008,0.92862,-0.00073,0.0,9.8095,0
4.12,-0.79331,9.59154,-1.87119,0.00898,-0.00471,0.00385,0.92862,-0.00074,0.0,9.80451,0
4.13,-0.80032,9.5852,-1.8746,0.01051,-0.00542,0.0069,0.92862,-0.00074,0.0,9.79952,0
4.14,-0.80084,9.5858,-1.87679,0.01153,-0.00574,0.00765,0.92862,-0.00074,0.0,9.80057,0
4.15,-0.79811,9.58987,-1.87837,0.0123,-0.00587,0.00724,0.92862,-0.00074,0.0,9.80464,0
4.16,-0.79538,9.59395,-1.87995,0.01307,-0.006,0.00684,0.92862,-0.00073,0.0,9.80871,0
4.17,-0.78881,9.59715,-1.87766,0.01327,-0.00593,0.00706,0.92862,-0.00073,0.0,9.81087,0
4.18,-0.77458,9.59861,-1.86761,0.01235,-0.00545,0.00854,0.92862,-0.00074,0.0,9.80925,0
4.19,-0.76035,9.60008,-1.85756,0.01143,-0.00497,0.01003,0.92861,-0.00074,0.0,9.80766,0
4.2,-0.74612,9.60154,-1.84751,0.01051,-0.00449,0.01151,0.92861,-0.00075,0.0,9.8061,0
4.21,-0.75365,9.61365,-1.84234,0.00996,-0.00342,0.01177,0.92861,-0.00075,0.0,9.81756,0
4.22,-0.76117,9.62576,-1.83716,0.00941,-0.00234,0.01204,0.92861,-0.00075,0.0,9.82902,0
4.23,-0.7687,9.63786,-1.83199,0.00887,-0.00126,0.0123,0.92861,-0.00075,0.0,9.8405,0
4.24,-0.77028,9.63507,-1.83299,0.00863,-0.00086,0.01226,0.92861,-0.00074,0.0,9.83808,0
4.25,-0.7689,9.62482,-1.83709,0.00854,-0.0008,0.01206,0.92861,-0.00074,0.0,9.8287,0
4.26,-0.76751,9.61458,-1.84119,0.00845,-0.00073,0.01186,0.92861,-0.00073,0.0,9.81932,0
4.27,-0.76702,9.60559,-1.84293,0.00868,-0.00044,0.01184,0.92861,-0.00073,0.0,9.81081,0
4.28,-0.76831,9.59913,-1.83997,0.00955,0.00029,0.0122,0.92861,-0.00074,0.0,9.80403,0
4.29,-0.76961,9.59266,-1.83702,0.01041,0.00102,0.01256,0.9286,-0.00074,0.0,9.79725,0
4.3,-0.7709,9.5862,-1.83406,0.01128,0.00175,0.01291,0.9286,-0.00075,0.0,9.79047,0
4.31,-0.7681,9.5916,-1.83438,0.00949,0.00216,0.01224,0.9286,-0.00075,0.0,9.7956,0
4.32,-0.7653,9.597,-1.8347,0.0077,0.00256,0.01157,0.9286,-0.00075,0.0,9.80073,0
4.33,-0.76251,9.60241,-1.83502,0.00591,0.00297,0.01089,0.9286,-0.00075,0.0,9.80586,0
4.34,-0.76229,9.60026,-1.83919,0.00636,0.00297,0.01067,0.9286,-0.00075,0.0,9.80452,0
4.35,-0.76337,9.59434,-1.84529,0.00793,0.00277,0.01066,0.9286,-0.00075,0.0,9.79996,0
4.36,-0.76445,9.58842,-1.85139,0.0095,0.00257,0.01066,0.9286,-0.00074,0.0,9.7954,0
4.37,-0.76597,9.58549,-1.85301,0.01037,0.00243,0.01024,0.9286,-0.00074,0.0,9.79295,0
4.38,-0.76839,9.58853,-1.84568,0.00985,0.00241,0.00898,0.9286,-0.00073,0.0,9.79474,0
4.39,-0.7708,9.59157,-1.83835,0.00934,0.00239,0.00773,0.92859,-0.00072,0.0,9.79653,0
4.4,-0.77321,9.59462,-1.83101,0.00882,0.00237,0.00647,0.92859,-0.00072,0.0,9.79832,0
4.41,-0.77746,9.59491,-1.83003,0.00848,0.00363,0.00506,0.92859,-0.00072,0.0,9.79876,0
4.42,-0.7817,9.5952,-1.82905,0.00814,0.00489,0.00365,0.92859,-0.00073,0.0,9.7992,0
4.43,-0.78595,9.59549,-1.82807,0.0078,0.00615,0.00224,0.92859,-0.00074,0.0,9.79964,0
4.44,-0.78859,9.59519,-1.82254,0.00801,0.00704,0.00064,0.92859,-0.00074,0.0,9.79853,0
4.45,-0.79042,9.59459,-1.81475,0.00848,0.00775,-0.00107,0.92859,-0.00074,0.0,9.79664,0
4.46,-0.79226,9.59399,-1.80695,0.00895,0.00846,-0.00278,0.92859,-0.00074,0.0,9.79476,0
4.47,-0.79307,9.59598,-1.80242,0.0097,0.00856,-0.00331,0.92859,-0.00074,0.0,9.79594,0
4.48,-0.79186,9.60313,-1.80442,0.01099,0.00743,-0.00149,0.92858,-0.00074,0.0,9.80322,0
4.49,-0.79064,9.61029,-1.80642,0.01229,0.00629,0.00033,0.92858,-0.00074,0.0,9.8105,0
4.5,-0.78943,9.61744,-1.80842,0.01358,0.00516,0.00215,0.92858,-0.00073,0.0,9.81778,0
4.51,-0.77681,9.61562,-1.81304,0.01498,0.00657,0.00144,0.92858,-0.00073,0.0,9.81584,0
4.52,-0.7642,9.61379,-1.81766,0.01637,0.00797,0.00073,0.92858,-0.00073,0.0,9.81391,0
4.53,-0.75159,9.61197,-1.82228,0.01777,0.00937,2e-05,0.92858,-0.00073,0.0,9.81201,0
4.54,-0.75146,9.6107,-1.82964,0.01724,0.00869,-0.00076,0.92858,-0.00073,0.0,9.81213,0
4.55,-0.75757,9.60972,-1.83837,0.01574,0.00697,-0.00157,0.92858,-0.00073,0.0,9.81327,0
4.56,-0.76369,9.60874,-1.8471,0.01423,0.00524,-0.00238,0.92858,-0.00073,0.0,9.81442,0
4.57,-0.76858,9.6088,-1.8496,0.01282,0.00437,-0.00293,0.92858,-0.00073,0.0,9.81533,0
4.58,-0.77104,9.61095,-1.83965,0.0116,0.00521,-0.00295,0.92857,-0.00073,0.0,9.81576,0
4.59,-0.77349,9.6131,-1.82969,0.01037,0.00605,-0.00297,0.92857,-0.00073,0.0,9.8162,0
4.6,-0.77595,9.61526,-1.81974,0.00914,0.00688,-0.00299,0.92857,-0.00073,0.0,9.81665,0
4.61,-0.77793,9.61935,-1.82766,0.0097,0.00664,-0.00224,0.92857,-0.00073,0.0,9.82229,0
4.62,-0.77992,9.62344,-1.83558,0.01026,0.00639,-0.0015,0.92857,-0.00073,0.0,9.82793,0
4.63,-0.78191,9.62753,-1.8435,0.01081,0.00614,-0.00075,0.92857,-0.00073,0.0,9.83358,0
4.64,-0.7823,9.63774,-1.84833,0.01063,0.00536,-0.00088,0.92857,-0.00073,0.0,9.84451,0
4.65,-0.78191,9.65101,-1.85163,0.01006,0.00432,-0.00145,0.92857,-0.00073,0.0,9.85809,0
4.66,-0.78151,9.66429,-1.85492,0.0095,0.00327,-0.00201,0.92857,-0.00073,0.0,9.87167,0
4.67,-0.78295,9.67404,-1.85403,0.00897,0.00224,-0.00217,0.92857,-0.00073,0.0,9.88116,0
4.68,-0.78803,9.67674,-1.84478,0.0085,0.00122,-0.00149,0.92856,-0.00073,0.0,9.88248,0
4.69,-0.79312,9.67944,-1.83553,0.00803,0.0002,-0.00081,0.92856,-0.00073,0.0,9.88381,0
4.7,-0.79821,9.68214,-1.82627,0.00756,-0.00082,-0.00013,0.92856,-0.00073,0.0,9.88515,0
4.71,-0.80167,9.68089,-1.8263,0.00618,0.00096,0.00182,0.92856,-0.00073,0.0,9.88421,0
4.72,-0.80512,9.67964,-1.82632,0.00481,0.00275,0.00376,0.92856,-0.00072,0.0,9.88327,0
4.73,-0.80858,9.67839,-1.82635,0.00343,0.00453,0.00571,0.92856,-0.00072,0.0,9.88233,0
4.74,-0.81162,9.67333,-1.82637,0.00362,0.00538,0.00751,0.92856,-0.00072,0.0,9.87763,0
4.75,-0.81445,9.66637,-1.8264,0.00459,0.00577,0.00923,0.92856,-0.00073,0.0,9.87105,0
4.76,-0.81727,9.6594,-1.82643,0.00555,0.00616,0.01095,0.92856,-0.00074,0.0,9.86448,0
4.77,-0.81912,9.65219,-1.8296,0.00605,0.00627,0.01245,0.92856,-0.00074,0.0,9.85815,0
4.78,-0.81901,9.64445,-1.83905,0.00562,0.00583,0.01351,0.92856,-0.00074,0.0,9.85233,0
4.79,-0.8189,9.63672,-1.8485,0.00519,0.00538,0.01456,0.92855,-0.00074,0.0,9.84652,0
4.8,-0.81879,9.62899,-1.85794,0.00476,0.00493,0.01562,0.92855,-0.00074,0.0,9.84072,0
4.81,-0.82074,9.6289,-1.85735,0.00649,0.00736,0.01389,0.92855,-0.00074,0.0,9.84068,0
4.82,-0.82269,9.6288,-1.85675,0.00822,0.00978,0.01216,0.92855,-0.00074,0.0,9.84064,0
4.83,-0.82464,9.62871,-1.85615,0.00996,0.01221,0.01043,0.92855,-0.00074,0.0,9.8406,0
4.84,-0.82621,9.63169,-1.85304,0.01189,0.01285,0.00911,0.92855,-0.00073,0.0,9.84306,0
4.85,-0.82759,9.6362,-1.84869,0.01392,0.0126,0.00798,0.92855,-0.00073,0.0,9.84677,0
4.86,-0.82898,9.64071,-1.84434,0.01595,0.01235,0.00686,0.92855,-0.00073,0.0,9.85049,0
4.87,-0.82823,9.64495,-1.84006,0.01734,0.01229,0.00638,0.92855,-0.00073,0.0,9.85377,0
4.88,-0.82322,9.64862,-1.83594,0.01744,0.01259,0.00719,0.92855,-0.00072,0.0,9.85618,0
4.89,-0.81821,9.6523,-1.83183,0.01754,0.0129,0.008,0.92854,-0.00071,0.0,9.8586,0
4.9,-0.81321,9.65598,-1.82771,0.01765,0.0132,0.0088,0.92854,-0.0007,0.0,9.86102,0
4.91,-0.80464,9.65599,-1.83094,0.01736,0.0136,0.00729,0.92854,-0.00072,0.0,9.86092,0
4.92,-0.79608,9.656,-1.83416,0.01706,0.014,0.00577,0.92854,-0.00073,0.0,9.86084,0
4.93,-0.78751,9.65601,-1.83739,0.01677,0.01439,0.00425,0.92854,-0.00075,0.0,9.86076,0
4.94,-0.78443,9.65194,-1.83915,0.01732,0.014,0.00357,0.92854,-0.00075,0.0,9.85686,0
4.95,-0.78408,9.64583,-1.84017,0.01829,0.01321,0.00331,0.92854,-0.00074,0.0,9.85105,0
4.96,-0.78374,9.63973,-1.8412,0.01926,0.01242,0.00305,0.92854,-0.00074,0.0,9.84524,0
4.97,-0.78741,9.5103,-1.7463,0.03785,0.01567,-0.00543,0.92844,0.00435,0.0,9.7013,0
4.98,-0.79912,9.1342,-1.45954,0.09168,0.027,-0.03039,0.92816,0.01962,0.0,9.28453,0
4.99,-0.81083,8.75811,-1.17277,0.14551,0.03834,-0.05534,0.92788,0.03489,0.0,8.8734,0
5.0,-0.82253,8.38201,-0.88601,0.19933,0.04967,-0.08029,0.9276,0.05016,0.0,8.46875,0
5.01,-0.8311,8.51204,-0.52554,0.2501,0.07397,-0.10529,0.92554,0.05094,0.0,8.56865,0
5.02,-0.83967,8.64206,-0.16507,0.30086,0.09826,-0.13029,0.92348,0.05172,0.0,8.68433,0
5.03,-0.84824,8.77209,0.19539,0.35162,0.12256,-0.15529,0.92142,0.05251,0.0,8.81517,0
5.04,-0.82583,9.15318,0.38806,0.37072,0.13596,-0.18211,0.91799,0.04667,0.0,9.19855,0
5.05,-0.78793,9.65982,0.49683,0.37399,0.14391,-0.20984,0.91388,0.03753,0.0,9.70462,0
5.06,-0.75003,10.16645,0.60559,0.37725,0.15186,-0.23757,0.90977,0.02839,0.0,10.21205,0
5.07,-0.7067,10.55098,0.70572,0.38674,0.15517,-0.26131,0.90504,0.02105,0.0,10.59814,0
5.08,-0.6525,10.69131,0.78856,0.40867,0.1492,-0.27705,0.89908,0.01734,0.0,10.74019,0
5.09,-0.5983,10.83165,0.8714,0.43061,0.14323,-0.2928,0.89312,0.01362,0.0,10.8831,0
5.1,-0.5441,10.97198,0.95425,0.45254,0.13726,-0.30854,0.88715,0.0099,0.0,11.02683,0
5.11,-0.45192,11.08431,0.93181,0.49359,0.13769,-0.29339,0.87965,0.01343,0.0,11.13258,0
5.12,-0.35974,11.19664,0.90937,0.53465,0.13811,-0.27823,0.87214,0.01695,0.0,11.23926,0
5.13,-0.26756,11.30896,0.88693,0.5757,0.13854,-0.26307,0.86463,0.02048,0.0,11.34685,0
5.14,-0.16547,11.25686,0.7018,0.62678,0.14002,-0.22253,0.85654,0.02165,0.0,11.27992,0
5.15,-0.05842,11.12253,0.43533,0.68288,0.14202,-0.16931,0.84816,0.02163,0.0,11.1312,0
5.16,0.04863,10.9882,0.16886,0.73898,0.14402,-0.11608,0.83978,0.02161,0.0,10.9896,0
5.17,0.13801,10.88814,-0.09777,0.77823,0.13782,-0.0756,0.83136,0.01793,0.0,10.88945,0
5.18,0.19206,10.85662,-0.36471,0.7838,0.1152,-0.06063,0.82283,0.00692,0.0,10.86444,0
5.19,0.24611,10.8251,-0.63166,0.78938,0.09259,-0.04566,0.81429,-0.00409,0.0,10.84631,0
5.2,0.30017,10.79358,-0.89861,0.79495,0.06997,-0.03069,0.80576,-0.01509,0.0,10.83508,0
5.21,0.2969,10.56661,-1.17096,0.79137,0.03818,-0.05776,0.79714,-0.01622,0.0,10.63544,0
5.22,0.29362,10.33965,-1.44332,0.78779,0.00638,-0.08482,0.78853,-0.01735,0.0,10.44403,0
5.23,0.29035,10.11268,-1.71567,0.7842,-0.02541,-0.11189,0.77991,-0.01848,0.0,10.2613,0
5.24,0.2428,9.83846,-2.01644,0.78308,-0.047,-0.14671,0.77179,-0.01665,0.0,10.04591,0
5.25,0.17312,9.54061,-2.33142,0.78318,-0.06349,-0.18542,0.76392,-0.01333,0.0,9.82286,0
5.26,0.10343,9.24276,-2.6464,0.78329,-0.07997,-0.22413,0.75605,-0.01002,0.0,9.61471,0
5.27,0.03294,8.97833,-2.9869,0.78039,-0.08957,-0.25374,0.7486,-0.00678,0.0,9.4622,0
5.28,-0.03914,8.78078,-3.37846,0.77148,-0.08539,-0.26517,0.74201,-0.00367,0.0,9.40838,0
5.29,-0.11121,8.58322,-3.77002,0.76257,-0.08121,-0.2766,0.73543,-0.00057,0.0,9.37534,0
5.3,-0.18329,8.38566,-4.16158,0.75366,-0.07703,-0.28804,0.72884,0.00253,0.0,9.36332,0
5.31,-0.26229,8.25318,-4.47315,0.7403,-0.06512,-0.28921,0.72368,0.00034,0.0,9.39111,0
5.32,-0.34128,8.12071,-4.78471,0.72694,-0.05321,-0.29038,0.71852,-0.00186,0.0,9.43164,0
5.33,-0.42028,7.98823,-5.09627,0.71358,-0.0413,-0.29155,0.71337,-0.00405,0.0,9.48475,0
5.34,-0.46281,7.88891,-5.34682,0.70109,-0.02984,-0.28929,0.7091,-0.00689,0.0,9.54136,0
5.35,-0.4871,7.80616,-5.56687,0.68903,-0.01859,-0.28531,0.70528,-0.01005,0.0,9.60018,0
5.36,-0.5114,7.72341,-5.78692,0.67698,-0.00735,-0.28134,0.70145,-0.0132,0.0,9.66442,0
5.37,-0.5313,7.66325,-5.97602,0.66442,0.00303,-0.27541,0.698,-0.01533,0.0,9.73245,0
5.38,-0.54242,7.64827,-6.10324,0.65086,0.01168,-0.26557,0.69526,-0.01539,0.0,9.79999,0
5.39,-0.55353,7.63328,-6.23046,0.6373,0.02033,-0.25574,0.69253,-0.01545,0.0,9.86874,0
5.4,-0.56465,7.61829,-6.35767,0.62374,0.02898,-0.24591,0.68979,-0.01551,0.0,9.93867,0
5.41,-0.54243,7.57796,-6.43436,0.60948,0.04097,-0.23391,0.68794,-0.0141,0.0,9.95594,0
5.42,-0.52021,7.53763,-6.51105,0.59523,0.05296,-0.2219,0.68609,-0.0127,0.0,9.97398,0
5.43,-0.49799,7.4973,-6.58774,0.58098,0.06495,-0.20989,0.68423,-0.01129,0.0,9.99279,0
5.44,-0.48044,7.45785,-6.63841,0.56529,0.07671,-0.198,0.68291,-0.01099,0.0,9.99594,0
5.45,-0.46523,7.41884,-6.67606,0.54889,0.08836,-0.18617,0.68185,-0.01123,0.0,9.99126,0
5.46,-0.45001,7.37982,-6.71372,0.53249,0.10001,-0.17433,0.68079,-0.01147,0.0,9.9869,0
5.47,-0.43113,7.353,-6.74007,0.51754,0.1122,-0.16118,0.67993,-0.01224,0.0,9.98404,0
5.48,-0.40493,7.35056,-6.74381,0.50549,0.12548,-0.14538,0.67949,-0.01406,0.0,9.98367,0
5.49,-0.37873,7.34813,-6.74756,0.49344,0.13876,-0.12958,0.67905,-0.01588,0.0,9.98338,0
5.5,-0.35253,7.34569,-6.7513,0.48139,0.15204,-0.11378,0.67861,-0.01771,0.0,9.98316,0
5.51,-0.34115,7.3583,-6.70812,0.47841,0.16134,-0.08736,0.67861,-0.02071,0.0,9.96292,0
5.52,-0.32977,7.3709,-6.66493,0.47543,0.17064,-0.06093,0.67861,-0.02372,0.0,9.94285,0
5.53,-0.31838,7.3835,-6.62174,0.47245,0.17995,-0.03451,0.67861,-0.02673,0.0,9.92295,0
5.54,-0.27872,7.40708,-6.57498,0.46758,0.18787,-0.0058,0.67877,-0.02692,0.0,9.90822,0
5.55,-0.22492,7.43615,-6.52643,0.46177,0.1951,0.02404,0.679,-0.02571,0.0,9.89652,0
5.56,-0.17112,7.46522,-6.47788,0.45595,0.20234,0.05389,0.67924,-0.02449,0.0,9.88543,0
5.57,-0.1157,7.49074,-6.42389,0.44621,0.20903,0.08238,0.67948,-0.02179,0.0,9.86868,0
5.58,-0.05707,7.50915,-6.35903,0.4286,0.21463,0.10815,0.67974,-0.0161,0.0,9.84012,0
5.59,0.00156,7.52757,-6.29418,0.41099,0.22023,0.13393,0.68001,-0.01042,0.0,9.81228,0
5.6,0.0602,7.54598,-6.22932,0.39339,0.22583,0.1597,0.68027,-0.00473,0.0,9.78519,0
5.61,0.06345,7.57004,-6.11899,0.36803,0.23418,0.18089,0.68031,-0.00398,0.0,9.73404,0
5.62,0.0667,7.5941,-6.00866,0.34266,0.24253,0.20208,0.68036,-0.00322,0.0,9.68394,0
5.63,0.06996,7.61816,-5.89832,0.3173,0.25087,0.22327,0.6804,-0.00247,0.0,9.63491,0
5.64,0.07637,7.64067,-5.78968,0.28686,0.25663,0.2399,0.6802,-0.00333,0.0,9.58677,0
5.65,0.08435,7.66241,-5.68189,0.25388,0.26109,0.25426,0.67989,-0.00499,0.0,9.53957,0
5.66,0.09233,7.68414,-5.5741,0.22089,0.26555,0.26862,0.67957,-0.00666,0.0,9.49343,0
5.67,0.10397,7.70308,-5.4857,0.19016,0.26671,0.28022,0.67915,-0.00914,0.0,9.45734,0
5.68,0.1229,7.71642,-5.4361,0.16393,0.26126,0.28631,0.67854,-0.01326,0.0,9.43978,0
5.69,0.14183,7.72976,-5.3865,0.1377,0.25582,0.2924,0.67793,-0.01739,0.0,9.42251,0
5.7,0.16077,7.7431,-5.3369,0.11148,0.25037,0.29849,0.67731,-0.02151,0.0,9.40552,0
5.71,0.19231,7.74247,-5.33742,0.08597,0.24692,0.30204,0.67662,-0.01914,0.0,9.40589,0
5.72,0.22385,7.74184,-5.33793,0.06046,0.24347,0.3056,0.67593,-0.01677,0.0,9.40637,0
5.73,0.2554,7.74121,-5.33845,0.03495,0.24003,0.30915,0.67524,-0.0144,0.0,9.40695,0
5.74,0.26692,7.78443,-5.33787,0.00587,0.2354,0.30796,0.6745,-0.01447,0.0,9.44253,0
5.75,0.26843,7.84957,-5.33675,-0.025,0.23019,0.30438,0.67374,-0.01576,0.0,9.49572,0
5.76,0.26995,7.91471,-5.33562,-0.05587,0.22499,0.3008,0.67298,-0.01705,0.0,9.54905,0
5.77,0.26687,7.98592,-5.31929,-0.08878,0.21852,0.29224,0.67212,-0.01849,0.0,9.59901,0
5.78,0.25462,8.06927,-5.27255,-0.12577,0.20954,0.27371,0.67107,-0.02027,0.0,9.64249,0
5.79,0.24237,8.15261,-5.22581,-0.16276,0.20056,0.25518,0.67002,-0.02204,0.0,9.68674,0
5.8,0.23011,8.23596,-5.17907,-0.19975,0.19159,0.23665,0.66897,-0.02382,0.0,9.73174,0
5.81,0.216,8.26766,-5.10696,-0.23944,0.1836,0.21107,0.66756,-0.0256,0.0,9.72018,0
5.82,0.20188,8.29935,-5.03486,-0.27912,0.17562,0.18549,0.66615,-0.02739,0.0,9.70927,0
5.83,0.18776,8.33105,-4.96275,-0.31881,0.16764,0.1599,0.66475,-0.02918,0.0,9.699,0
5.84,0.1906,8.33204,-4.90505,-0.35739,0.16258,0.14191,0.66319,-0.02749,0.0,9.67051,0
5.85,0.20191,8.31768,-4.85455,-0.39543,0.15897,0.12771,0.66155,-0.02407,0.0,9.63282,0
5.86,0.21322,8.30332,-4.80404,-0.43346,0.15536,0.11351,0.65991,-0.02065,0.0,9.59528,0
5.87,0.22251,8.29906,-4.75763,-0.46963,0.15555,0.10165,0.65823,-0.01672,0.0,9.56865,0
5.88,0.22775,8.31501,-4.7194,-0.50209,0.16332,0.0945,0.65646,-0.0118,0.0,9.56368,0
5.89,0.23299,8.33095,-4.68117,-0.53454,0.17109,0.08735,0.6547,-0.00688,0.0,9.55889,0
5.9,0.23824,8.3469,-4.64295,-0.56699,0.17886,0.08019,0.65293,-0.00196,0.0,9.55429,0
5.91,0.23865,8.37528,-4.61877,-0.5935,0.19204,0.08237,0.6511,-0.00143,0.0,9.56741,0
5.92,0.23907,8.40367,-4.5946,-0.62001,0.20522,0.08455,0.64926,-0.00091,0.0,9.58067,0
5.93,0.23949,8.43205,-4.57043,-0.64653,0.2184,0.08673,0.64742,-0.00038,0.0,9.59405,0
5.94,0.22816,8.4574,-4.5538,-0.66471,0.22729,0.08805,0.64561,-0.00344,0.0,9.60817,0
5.95,0.21096,8.48124,-4.54094,-0.67873,0.23405,0.08895,0.64382,-0.00829,0.0,9.62268,0
5.96,0.19375,8.50507,-4.52808,-0.69275,0.2408,0.08984,0.64203,-0.01315,0.0,9.63728,0
5.97,0.18498,8.52502,-4.52332,-0.70484,0.24449,0.08917,0.64031,-0.01803,0.0,9.65249,0
5.98,0.19308,8.5372,-4.53473,-0.71307,0.24204,0.08537,0.63875,-0.02296,0.0,9.66875,0
5.99,0.20118,8.54938,-4.54615,-0.72131,0.23959,0.08156,0.63718,-0.0279,0.0,9.68503,0
6.0,0.20927,8.56156,-4.55756,-0.72954,0.23714,0.07776,0.63561,-0.03283,0.0,9.70132,0
6.01,0.23292,8.56391,-4.58266,-0.73193,0.22803,0.06856,0.63446,-0.03495,0.0,9.71574,0
6.02,0.25657,8.56626,-4.60776,-0.73433,0.21892,0.05937,0.63331,-0.03707,0.0,9.73027,0
6.03,0.28022,8.56861,-4.63286,-0.73672,0.2098,0.05017,0.63216,-0.0392,0.0,9.7449,0
6.04,0.30715,8.57176,-4.65369,-0.73892,0.20025,0.04248,0.63136,-0.03997,0.0,9.75839,0
6.05,0.33574,8.57531,-4.67237,-0.74102,0.19049,0.03554,0.63074,-0.04006,0.0,9.77137,0
6.06,0.36432,8.57886,-4.69106,-0.74312,0.18073,0.0286,0.63013,-0.04016,0.0,9.78446,0
6.07,0.3842,8.58203,-4.69502,-0.74256,0.16992,0.02296,0.62967,-0.04054,0.0,9.78989,0
6.08,0.3867,8.58443,-4.66952,-0.73668,0.15705,0.01991,0.62955,-0.04148,0.0,9.7799,0
6.09,0.38919,8.58683,-4.64402,-0.7308,0.14417,0.01686,0.62942,-0.04242,0.0,9.76996,0
6.1,0.39169,8.58924,-4.61852,-0.72492,0.13129,0.01381,0.6293,-0.04336,0.0,9.76008,0
6.11,0.3986,8.631,-4.56316,-0.70909,0.11879,0.01086,0.62956,-0.04354,0.0,9.77116,0
6.12,0.40552,8.67277,-4.5078,-0.69326,0.10629,0.00791,0.62982,-0.04373,0.0,9.78272,0
6.13,0.41243,8.71454,-4.45243,-0.67743,0.09379,0.00496,0.63008,-0.04391,0.0,9.79477,0
6.14,0.45917,8.77631,-4.40093,-0.65539,0.08151,0.00413,0.63056,-0.04126,0.0,9.82866,0
6.15,0.52583,8.84807,-4.35134,-0.63026,0.06936,0.00435,0.63115,-0.0372,0.0,9.87416,0
6.16,0.59249,8.91984,-4.30176,-0.60512,0.0572,0.00458,0.63174,-0.03314,0.0,9.92067,0
6.17,0.65188,8.98954,-4.24968,-0.57838,0.04568,0.00442,0.63242,-0.02854,0.0,9.96476,0
6.18,0.69672,9.05511,-4.19258,-0.5484,0.03543,0.00349,0.6333,-0.02286,0.0,10.00291,0
6.19,0.74156,9.12069,-4.13548,-0.51842,0.02517,0.00256,0.63417,-0.01718,0.0,10.04187,0
6.2,0.78639,9.18627,-4.07838,-0.48844,0.01492,0.00163,0.63504,-0.0115,0.0,10.08163,0
6.21,0.78708,9.24667,-4.02103,-0.45385,0.01208,0.0018,0.63612,-0.00785,0.0,10.11381,0
6.22,0.78778,9.30707,-3.96367,-0.41927,0.00924,0.00197,0.63719,-0.00421,0.0,10.14657,0
6.23,0.78847,9.36747,-3.90632,-0.38468,0.00639,0.00213,0.63827,-0.00057,0.0,10.17991,0
6.24,0.76508,9.41769,-3.82523,-0.35403,0.00649,0.00147,0.63937,0.00068,0.0,10.19365,0
6.25,0.72966,9.4628,-3.73227,-0.32534,0.00807,0.00038,0.64048,0.00072,0.0,10.19837,0
6.26,0.69423,9.50792,-3.63931,-0.29666,0.00964,-0.00071,0.64159,0.00076,0.0,10.20427,0
6.27,0.65624,9.54705,-3.53931,-0.26991,0.01195,-0.00234,0.64264,-1e-05,0.0,10.20312,0
6.28,0.6131,9.57423,-3.42521,-0.24705,0.01574,-0.00505,0.64357,-0.0024,0.0,10.18695,0
6.29,0.56997,9.60141,-3.31112,-0.2242,0.01953,-0.00776,0.6445,-0.00479,0.0,10.17228,0
6.3,0.52683,9.62858,-3.19702,-0.20134,0.02332,-0.01047,0.64543,-0.00718,0.0,10.15914,0
6.31,0.49453,9.62361,-3.06725,-0.18669,0.02576,-0.01497,0.646,-0.0103,0.0,10.11269,0
6.32,0.46224,9.61863,-2.93748,-0.17204,0.02821,-0.01947,0.64657,-0.01343,0.0,10.0678,0
6.33,0.42994,9.61366,-2.80771,-0.1574,0.03066,-0.02397,0.64714,-0.01655,0.0,10.0245,0
6.34,0.41531,9.60388,-2.69409,-0.14406,0.03152,-0.02402,0.64743,-0.0192,0.0,9.98324,0
6.35,0.40952,9.5917,-2.58854,-0.13138,0.0316,-0.02185,0.64757,-0.02162,0.0,9.94329,0
6.36,0.40373,9.57952,-2.48299,-0.1187,0.03167,-0.01968,0.64772,-0.02404,0.0,9.90431,0
6.37,0.40687,9.56856,-2.39876,-0.10596,0.03058,-0.01893,0.64773,-0.02577,0.0,9.87304,0
6.38,0.42787,9.56002,-2.35717,-0.09309,0.02719,-0.02103,0.64749,-0.02613,0.0,9.85562,0
6.39,0.44887,9.55148,-2.31557,-0.08022,0.02379,-0.02312,0.64724,-0.02649,0.0,9.8384,0
6.4,0.46987,9.54295,-2.27398,-0.06736,0.0204,-0.02522,0.647,-0.02685,0.0,9.82138,0
6.41,0.48793,9.55515,-2.24238,-0.05686,0.01757,-0.0255,0.64645,-0.02676,0.0,9.82686,0
6.42,0.50598,9.56736,-2.21078,-0.04637,0.01475,-0.02579,0.6459,-0.02666,0.0,9.83249,0
6.43,0.52403,9.57956,-2.17918,-0.03587,0.01193,-0.02607,0.64535,-0.02657,0.0,9.83827,0
6.44,0.53626,9.58215,-2.17063,-0.02593,0.00768,-0.02844,0.64465,-0.02642,0.0,9.83956,0
6.45,0.54557,9.57994,-2.1736,-0.01627,0.00271,-0.03185,0.64388,-0.02625,0.0,9.83857,0
6.46,0.55488,9.57772,-2.17657,-0.00661,-0.00226,-0.03526,0.64311,-0.02607,0.0,9.83759,0
6.47,0.55828,9.57431,-2.18602,0.0025,-0.00658,-0.03807,0.64229,-0.02582,0.0,9.83655,0
6.48,0.54985,9.5685,-2.20845,0.01049,-0.00958,-0.03967,0.64136,-0.02542,0.0,9.83543,0
6.49,0.54143,9.56268,-2.23088,0.01849,-0.01258,-0.04128,0.64043,-0.02501,0.0,9.83437,0
6.5,0.53301,9.55687,-2.2533,0.02649,-0.01558,-0.04289,0.63949,-0.02461,0.0,9.83338,0
6.51,0.54174,9.54039,-2.2823,0.03615,-0.01849,-0.04479,0.63845,-0.02399,0.0,9.82453,0
6.52,0.55048,9.5239,-2.31129,0.04581,-0.02139,-0.0467,0.63741,-0.02337,0.0,9.81579,0
6.53,0.55922,9.50742,-2.34029,0.05547,-0.0243,-0.0486,0.63636,-0.02275,0.0,9.80717,0
6.54,0.56497,9.49392,-2.3681,0.06275,-0.02589,-0.04817,0.63527,-0.02225,0.0,9.8011,0
6.55,0.56922,9.48192,-2.39532,0.06882,-0.02683,-0.04659,0.63415,-0.02182,0.0,9.79634,0
6.56,0.57348,9.46992,-2.42255,0.0749,-0.02778,-0.045,0.63303,-0.02139,0.0,9.79168,0
6.57,0.57286,9.46049,-2.4512,0.08162,-0.02806,-0.04233,0.6319,-0.02096,0.0,9.78966,0
6.58,0.5625,9.45621,-2.48274,0.08963,-0.02704,-0.0375,0.63075,-0.02057,0.0,9.79287,0
6.59,0.55214,9.45194,-2.51427,0.09764,-0.02602,-0.03267,0.62959,-0.02017,0.0,9.7962,0
6.6,0.54179,9.44766,-2.5458,0.10565,-0.02499,-0.02784,0.62843,-0.01977,0.0,9.79964,0
6.61,0.54344,9.43729,-2.57714,0.11265,-0.02335,-0.0235,0.62726,-0.01938,0.0,9.79792,0
6.62,0.54509,9.42691,-2.60847,0.11965,-0.0217,-0.01915,0.62609,-0.01899,0.0,9.79632,0
6.63,0.54674,9.41654,-2.63981,0.12666,-0.02006,-0.01481,0.62492,-0.0186,0.0,9.79483,0
6.64,0.54386,9.40488,-2.67531,0.13371,-0.01903,-0.01027,0.62375,-0.01848,0.0,9.7931,0
6.65,0.53872,9.39259,-2.71289,0.14078,-0.01832,-0.00564,0.62258,-0.01849,0.0,9.79136,0
6.66,0.53359,9.3803,-2.75048,0.14785,-0.01762,-0.00101,0.62141,-0.0185,0.0,9.78978,0
6.67,0.52861,9.37104,-2.78409,0.15418,-0.01657,0.00423,0.62024,-0.01855,0.0,9.79014,0
6.68,0.52394,9.36783,-2.80973,0.15901,-0.01484,0.01068,0.61907,-0.01868,0.0,9.79415,0
6.69,0.51928,9.36462,-2.83538,0.16385,-0.01311,0.01712,0.6179,-0.01882,0.0,9.79823,0
6.7,0.51462,9.36142,-2.86103,0.16868,-0.01138,0.02357,0.61673,-0.01895,0.0,9.80237,0
6.71,0.51012,9.36367,-2.88919,0.17101,-0.0084,0.0301,0.61556,-0.01911,0.0,9.81254,0
6.72,0.50563,9.36592,-2.91736,0.17333,-0.00541,0.03662,0.61438,-0.01927,0.0,9.82279,0
6.73,0.50113,9.36817,-2.94553,0.17566,-0.00243,0.04314,0.61321,-0.01943,0.0,9.8331,0
6.74,0.49968,9.35991,-2.96707,0.17693,0.00036,0.05056,0.61204,-0.01955,0.0,9.83164,0
6.75,0.49974,9.34639,-2.98528,0.17767,0.00305,0.05843,0.61086,-0.01964,0.0,9.82429,0
6.76,0.49981,9.33287,-3.0035,0.17842,0.00575,0.06629,0.60969,-0.01974,0.0,9.81699,0
6.77,0.49898,9.31751,-3.02181,0.17986,0.0076,0.0735,0.60852,-0.0198,0.0,9.80798,0
6.78,0.49638,9.29847,-3.04031,0.18269,0.00778,0.07939,0.60734,-0.01979,0.0,9.79548,0
6.79,0.49378,9.27944,-3.05881,0.18553,0.00796,0.08527,0.60617,-0.01979,0.0,9.78305,0
6.8,0.49117,9.2604,-3.07731,0.18837,0.00814,0.09115,0.60499,-0.01978,0.0,9.77067,0
6.81,0.50126,9.24951,-3.09099,0.1887,0.00887,0.09381,0.60382,-0.01971,0.0,9.76519,0
6.82,0.51135,9.23863,-3.10466,0.18903,0.0096,0.09646,0.60264,-0.01963,0.0,9.75975,0
6.83,0.52144,9.22774,-3.11834,0.18936,0.01032,0.09911,0.60147,-0.01955,0.0,9.75434,0
6.84,0.52064,9.21618,-3.13631,0.18698,0.0114,0.10091,0.60029,-0.01945,0.0,9.74912,0
6.85,0.5144,9.20426,-3.15642,0.18323,0.01266,0.10228,0.59912,-0.01934,0.0,9.74403,0
6.86,0.50816,9.19235,-3.17654,0.17949,0.01392,0.10365,0.59794,-0.01923,0.0,9.73899,0
6.87,0.50374,9.18001,-3.19387,0.17646,0.01447,0.10529,0.59676,-0.01912,0.0,9.73279,0
6.88,0.50295,9.16682,-3.20561,0.17486,0.0136,0.10745,0.59557,-0.01902,0.0,9.72418,0
6.89,0.50216,9.15363,-3.21736,0.17326,0.01273,0.10962,0.59439,-0.01891,0.0,9.71558,0
6.9,0.50137,9.14044,-3.22911,0.17166,0.01186,0.11178,0.59321,-0.01881,0.0,9.70702,0
6.91,0.50603,9.13147,-3.23201,0.16899,0.01299,0.11284,0.59201,-0.01874,0.0,9.69978,0
6.92,0.51069,9.1225,-3.23491,0.16632,0.01413,0.11389,0.59082,-0.01868,0.0,9.69255,0
6.93,0.51535,9.11353,-3.23781,0.16365,0.01527,0.11495,0.58963,-0.01861,0.0,9.68532,0
6.94,0.51656,9.11041,-3.24555,0.15977,0.01711,0.11477,0.58843,-0.01858,0.0,9.68504,0
6.95,0.51604,9.11021,-3.25571,0.15529,0.0193,0.11397,0.58722,-0.01857,0.0,9.68823,0
6.96,0.51553,9.11001,-3.26587,0.15081,0.02149,0.11318,0.58601,-0.01855,0.0,9.69144,0
6.97,0.51378,9.10774,-3.27808,0.14714,0.02395,0.11312,0.5848,-0.01856,0.0,9.69333,0
6.98,0.50956,9.10129,-3.29437,0.14507,0.02693,0.11454,0.58358,-0.01859,0.0,9.69258,0
6.99,0.50533,9.09485,-3.31066,0.143,0.02992,0.11597,0.58236,-0.01863,0.0,9.69186,0
7.0,0.50111,9.08841,-3.32695,0.14093,0.0329,0.11739,0.58114,-0.01867,0.0,9.69117,0
7.01,0.49241,9.08641,-3.32914,0.13717,0.03674,0.11803,0.57989,-0.01876,0.0,9.68961,0
7.02,0.48371,9.08442,-3.33132,0.13341,0.04057,0.11866,0.57865,-0.01884,0.0,9.68805,0
7.03,0.475,9.08242,-3.3335,0.12965,0.04441,0.11929,0.57741,-0.01893,0.0,9.6865,0
7.04,0.47278,9.08058,-3.33998,0.12559,0.04657,0.12,0.57616,-0.01905,0.0,9.6869,0
7.05,0.4738,9.07883,-3.34861,0.12137,0.04789,0.12075,0.57489,-0.01918,0.0,9.68828,0
7.06,0.47482,9.07707,-3.35724,0.11715,0.04921,0.12149,0.57363,-0.01931,0.0,9.68967,0
7.07,0.47397,9.07346,-3.3691,0.11314,0.0498,0.12087,0.57236,-0.01946,0.0,9.69037,0
7.08,0.46939,9.06616,-3.38742,0.10952,0.04891,0.11754,0.57107,-0.01962,0.0,9.6897,0
7.09,0.46481,9.05885,-3.40574,0.10591,0.04802,0.1142,0.56978,-0.01978,0.0,9.68906,0
7.1,0.46023,9.05155,-3.42406,0.1023,0.04713,0.11086,0.5685,-0.01995,0.0,9.68848,0
7.11,0.46393,9.06809,-3.42753,0.09871,0.04776,0.10975,0.56718,-0.0201,0.0,9.70533,0
7.12,0.46763,9.08464,-3.431,0.09513,0.04839,0.10865,0.56587,-0.02026,0.0,9.72219,0
7.13,0.47134,9.10118,-3.43447,0.09154,0.04901,0.10754,0.56455,-0.02041,0.0,9.73905,0
7.14,0.47651,9.10474,-3.43605,0.08723,0.04894,0.10666,0.56322,-0.02065,0.0,9.74319,0
7.15,0.48242,9.10181,-3.43669,0.08257,0.04851,0.10589,0.56187,-0.02092,0.0,9.74097,0
7.16,0.48834,9.09888,-3.43734,0.07791,0.04808,0.10512,0.56053,-0.0212,0.0,9.73876,0
7.17,0.49186,9.09541,-3.4371,0.07268,0.04789,0.10359,0.55917,-0.02147,0.0,9.73561,0
7.18,0.49062,9.09083,-3.43512,0.06634,0.04819,0.10051,0.5578,-0.02175,0.0,9.73057,0
7.19,0.48938,9.08626,-3.43314,0.05999,0.04848,0.09744,0.55642,-0.02202,0.0,9.72554,0
7.2,0.48814,9.08169,-3.43115,0.05364,0.04877,0.09437,0.55504,-0.02229,0.0,9.7205,0
7.21,0.58014,9.4963,-2.65269,0.06344,0.07193,0.11964,0.55121,-0.00049,0.0,9.87689,0
7.22,0.67214,9.91091,-1.87423,0.07324,0.09509,0.1449,0.54738,0.02131,0.0,10.10894,0
7.23,0.76414,10.32552,-1.09577,0.08305,0.11824,0.17017,0.54355,0.04311,0.0,10.41158,0
7.24,0.72903,10.58603,-0.52964,0.09719,0.13399,0.19158,0.53744,0.04356,0.0,10.62431,0
7.25,0.63038,10.76949,-0.06967,0.11352,0.14605,0.21106,0.5302,0.03332,0.0,10.78814,0
7.26,0.53173,10.95294,0.3903,0.12984,0.1581,0.23055,0.52295,0.02309,0.0,10.97279,0
7.27,0.44876,11.11846,0.79461,0.14938,0.16661,0.24712,0.51467,0.01332,0.0,11.15585,0
7.28,0.39715,11.24809,1.08763,0.17534,0.16803,0.25787,0.50432,0.00449,0.0,11.30753,0
7.29,0.34554,11.37772,1.38064,0.20131,0.16945,0.26862,0.49397,-0.00435,0.0,11.46639,0
7.3,0.29393,11.50735,1.67365,0.22727,0.17087,0.27937,0.48362,-0.01319,0.0,11.63214,0
7.31,0.28649,11.58464,1.83913,0.25156,0.17325,0.28526,0.47037,-0.00963,0.0,11.73322,0
7.32,0.27904,11.66193,2.0046,0.27585,0.17563,0.29115,0.45711,-0.00607,0.0,11.83626,0
7.33,0.27159,11.73922,2.17007,0.30014,0.178,0.29704,0.44386,-0.00251,0.0,11.9412,0
7.34,0.24154,11.78052,2.26792,0.32145,0.18732,0.30004,0.42885,0.00355,0.0,11.99927,0
7.35,0.20019,11.80382,2.33197,0.34128,0.20011,0.30159,0.41298,0.01086,0.0,12.03364,0
7.36,0.15885,11.82713,2.39601,0.36111,0.2129,0.30314,0.39711,0.01817,0.0,12.06843,1
7.37,0.09871,11.83271,2.4231,0.37176,0.23997,0.30949,0.38051,0.02797,0.0,12.07867,1
7.38,0.00098,11.80286,2.37628,0.36404,0.29561,0.32542,0.36248,0.04275,0.0,12.0397,1
7.39,-0.09675,11.77302,2.32947,0.35632,0.35125,0.34135,0.34445,0.05754,0.0,12.00165,1
7.4,-0.19448,11.74317,2.28265,0.34859,0.40689,0.35728,0.32642,0.07232,0.0,11.96455,1
7.41,-0.35865,11.11414,1.89314,0.39506,0.55226,0.41157,0.30759,0.0928,0.0,11.27993,1
7.42,-0.52281,10.48511,1.50362,0.44153,0.69762,0.46586,0.28876,0.11329,0.0,10.60527,1
7.43,-0.68697,9.85609,1.1141,0.488,0.84299,0.52014,0.26993,0.13377,0.0,9.94261,1
7.44,-0.85056,8.17604,-0.87687,0.62073,0.87685,0.62101,0.25754,0.06986,0.0,8.2668,1
7.45,-1.01386,5.97048,-3.66857,0.79658,0.85497,0.74518,0.24837,-0.03624,0.0,7.08046,1
7.46,-1.17716,3.76491,-6.46027,0.97244,0.83309,0.86934,0.2392,-0.14235,0.0,7.56937,1
7.47,-1.1617,2.58075,-8.88534,1.12424,0.75304,0.98145,0.23329,-0.22431,0.0,9.32518,1
7.48,-0.7887,3.43938,-10.57713,1.22796,0.55668,1.06943,0.23391,-0.25798,0.0,11.15021,1
7.49,-0.41571,4.29802,-12.26893,1.33167,0.36032,1.15742,0.23452,-0.29166,0.0,13.00663,1
7.5,-0.04271,5.15665,-13.96072,1.43539,0.16397,1.24541,0.23514,-0.32533,0.0,14.8827,1
7.51,0.37612,5.99953,-13.89837,1.48047,-0.03746,1.26549,0.23513,-0.30635,0.0,15.14268,1
7.52,0.79495,6.84241,-13.83602,1.52555,-0.23889,1.28558,0.23513,-0.28737,0.0,15.45594,1
7.53,1.21378,7.6853,-13.77368,1.57063,-0.44032,1.30567,0.23513,-0.26839,0.0,15.81933,1
7.54,1.20299,7.928,-13.66698,1.66201,-0.54449,1.265,0.23566,-0.22302,0.0,15.84571,1
7.55,0.9774,7.87062,-13.53811,1.77653,-0.60005,1.19395,0.23646,-0.16446,0.0,15.6902,1
7.56,0.7518,7.81323,-13.40923,1.89106,-0.6556,1.1229,0.23726,-0.10589,0.0,15.53768,1
7.57,0.50542,7.86658,-13.19091,2.02429,-0.68984,1.05013,0.23803,-0.06508,0.0,15.3668,1
7.58,0.21745,8.14139,-12.79368,2.19494,-0.68146,0.97391,0.23876,-0.05976,0.0,15.16601,1
7.59,-0.07052,8.4162,-12.39645,2.3656,-0.67308,0.89769,0.23948,-0.05444,0.0,14.98364,1
7.6,-0.35849,8.69101,-11.99922,2.53625,-0.66469,0.82147,0.2402,-0.04912,0.0,14.82037,1
7.61,-0.42936,8.72446,-11.72911,2.64449,-0.66174,0.77731,0.24062,-0.08081,0.0,14.62438,1
7.62,-0.50022,8.75791,-11.45899,2.75273,-0.65879,0.73316,0.24104,-0.1125,0.0,14.4312,1
7.63,-0.57109,8.79135,-11.18887,2.86097,-0.65584,0.68901,0.24146,-0.1442,0.0,14.24096,1
7.64,-0.49622,7.98402,-10.2623,2.7873,-0.62782,0.66815,0.24171,-0.12861,0.0,13.01175,1
7.65,-0.34848,6.7563,-9.0075,2.62267,-0.58726,0.65894,0.24189,-0.08938,0.0,11.26517,1
7.66,-0.20074,5.52858,-7.7527,2.45804,-0.5467,0.64973,0.24206,-0.05015,0.0,9.52417,1
7.67,-0.13379,4.77715,-6.99011,2.33465,-0.52566,0.63056,0.24221,-0.02808,0.0,8.46763,1
7.68,-0.22841,4.97832,-7.21193,2.29372,-0.54365,0.59149,0.24231,-0.04034,0.0,8.76628,1
7.69,-0.32304,5.17949,-7.43375,2.2528,-0.56164,0.55243,0.24241,-0.0526,0.0,9.06598,1
7.7,-0.41767,5.38065,-7.65557,2.21188,-0.57963,0.51336,0.2425,-0.06486,0.0,9.36662,1
7.71,-0.54748,5.39828,-7.88122,2.18214,-0.60391,0.47405,0.24238,-0.07374,0.0,9.56843,1
7.72,-0.67729,5.41591,-8.10687,2.1524,-0.62819,0.43474,0.24225,-0.08263,0.0,9.77303,1
7.73,-0.8071,5.43353,-8.33252,2.12265,-0.65248,0.39543,0.24212,-0.09151,0.0,9.98026,1
7.74,-0.86114,5.23189,-8.39726,2.0726,-0.67991,0.35276,0.24185,-0.09481,0.0,9.93118,1
7.75,-0.8773,4.92062,-8.38154,2.01239,-0.70893,0.30842,0.24151,-0.09532,0.0,9.75871,1
7.76,-0.89345,4.60934,-8.36582,1.95218,-0.73794,0.26408,0.24117,-0.09583,0.0,9.5933,1
7.77,-0.91758,4.39095,-8.40505,1.90665,-0.76647,0.21793,0.24083,-0.09642,0.0,9.52719,1
7.78,-0.95765,4.35832,-8.55416,1.89049,-0.79402,0.16814,0.24051,-0.09714,0.0,9.64809,1
7.79,-0.99771,4.32569,-8.70327,1.87433,-0.82157,0.11836,0.24019,-0.09787,0.0,9.77006,1
7.8,-1.03778,4.29306,-8.85238,1.85817,-0.84912,0.06858,0.23987,-0.0986,0.0,9.89303,1
7.81,-1.01879,4.24171,-9.14221,1.86122,-0.87359,0.0425,0.23932,-0.11514,0.0,10.12966,1
7.82,-0.99979,4.19037,-9.43204,1.86427,-0.89806,0.01642,0.23878,-0.13169,0.0,10.36929,1
7.83,-0.9808,4.13903,-9.72186,1.86732,-0.92253,-0.00965,0.23823,-0.14824,0.0,10.6117,1
7.84,-1.03259,3.90001,-9.62087,1.83056,-0.93055,-0.04612,0.23755,-0.14637,0.0,10.43252,1
7.85,-1.11976,3.56716,-9.32446,1.77389,-0.93033,-0.08779,0.23679,-0.13529,0.0,10.0461,1
7.86,-1.20693,3.23432,-9.02805,1.71722,-0.93012,-0.12945,0.23603,-0.12422,0.0,9.66557,1
7.87,-1.29065,2.92498,-8.74562,1.66529,-0.92589,-0.17268,0.23534,-0.11102,0.0,9.31167,1
7.88,-1.36749,2.66265,-8.49115,1.62282,-0.91364,-0.21903,0.23479,-0.0936,0.0,9.00329,1
7.89,-1.44433,2.40031,-8.23667,1.58036,-0.90139,-0.26538,0.23424,-0.07617,0.0,8.70002,1
7.9,-1.52117,2.13798,-7.98219,1.5379,-0.88914,-0.31174,0.23369,-0.05875,0.0,8.4024,1
7.91,-1.43539,1.94604,-8.08179,1.51499,-0.87167,-0.31069,0.2331,-0.05798,0.0,8.4358,1
7.92,-1.34962,1.7541,-8.18138,1.49208,-0.8542,-0.30965,0.23252,-0.05722,0.0,8.47545,1
7.93,-1.26385,1.56216,-8.28097,1.46918,-0.83672,-0.3086,0.23193,-0.05645,0.0,8.52128,1
7.94,-1.19906,1.33002,-8.42642,1.4447,-0.81794,-0.2942,0.23177,-0.05638,0.0,8.6146,1
7.95,-1.14475,1.07778,-8.59479,1.41944,-0.7985,-0.27313,0.23182,-0.05665,0.0,8.73742,1
7.96,-1.09044,0.82554,-8.76316,1.39418,-0.77906,-0.25205,0.23188,-0.05693,0.0,8.86925,1
7.97,-1.07365,0.63802,-8.84448,1.36742,-0.75912,-0.22972,0.23192,-0.05758,0.0,8.93222,1
7.98,-1.13187,0.57994,-8.75169,1.33765,-0.73816,-0.20487,0.23195,-0.059,0.0,8.84362,1
7.99,-1.1901,0.52185,-8.65891,1.30788,-0.7172,-0.18001,0.23198,-0.06041,0.0,8.75587,1
8.0,-1.24832,0.46377,-8.56612,1.27811,-0.69624,-0.15516,0.23201,-0.06183,0.0,8.66901,1
8.01,-1.29599,0.37698,-8.58692,1.25403,-0.67036,-0.1505,0.23205,-0.05712,0.0,8.69235,1
8.02,-1.34365,0.2902,-8.60773,1.22994,-0.64448,-0.14583,0.23209,-0.05242,0.0,8.7168,1
8.03,-1.39132,0.20341,-8.62853,1.20585,-0.61861,-0.14117,0.23213,-0.04772,0.0,8.74235,1
8.04,-1.33867,0.10549,-8.76429,1.18683,-0.60089,-0.13789,0.2322,-0.04613,0.0,8.86656,1
8.05,-1.23585,0.00199,-8.95753,1.17033,-0.58727,-0.13531,0.23229,-0.04611,0.0,9.04238,1
8.06,-1.13303,-0.1015,-9.15077,1.15383,-0.57364,-0.13274,0.23239,-0.04608,0.0,9.22121,1
8.07,-1.04992,-0.20122,-9.32543,1.14083,-0.56545,-0.13468,0.23246,-0.04743,0.0,9.3865,1
8.08,-1.00622,-0.29339,-9.46291,1.13483,-0.56815,-0.14568,0.23248,-0.05154,0.0,9.52078,1
8.09,-0.96252,-0.38556,-9.6004,1.12882,-0.57084,-0.15667,0.2325,-0.05564,0.0,9.65623,1
8.1,-0.91883,-0.47773,-9.73788,1.12281,-0.57353,-0.16766,0.23252,-0.05974,0.0,9.79279,1
8.11,-0.93036,-0.53781,-9.80221,1.13136,-0.58537,-0.1748,0.23252,-0.06363,0.0,9.86094,1
8.12,-0.94189,-0.59789,-9.86653,1.13992,-0.59721,-0.18193,0.23251,-0.06752,0.0,9.9294,1
8.13,-0.95342,-0.65797,-9.93086,1.14847,-0.60904,-0.18906,0.23251,-0.07141,0.0,9.99819,1
8.14,-1.00583,-0.74032,-9.86172,1.1506,-0.61486,-0.19812,0.2325,-0.07619,0.0,9.94049,1
8.15,-1.07869,-0.83381,-9.72585,1.14952,-0.61767,-0.20816,0.23248,-0.08141,0.0,9.82094,1
8.16,-1.15155,-0.9273,-9.58998,1.14844,-0.62047,-0.21819,0.23246,-0.08664,0.0,9.70328,1
8.17,-1.15117,-1.03659,-9.41801,1.13978,-0.62269,-0.22402,0.23243,-0.08572,0.0,9.54456,1
8.18,-1.00431,-1.1775,-9.17385,1.11595,-0.62371,-0.22146,0.23237,-0.07253,0.0,9.30348,1
8.19,-0.85746,-1.3184,-8.92969,1.09212,-0.62473,-0.2189,0.23231,-0.05934,0.0,9.06713,1
8.2,-0.7106,-1.45931,-8.68553,1.06829,-0.62576,-0.21634,0.23226,-0.04615,0.0,8.83589,1
8.21,-0.69744,-1.72465,-8.75951,1.01653,-0.60396,-0.21017,0.23227,-0.04949,0.0,8.95488,1
8.22,-0.68428,-1.99,-8.83349,0.96477,-0.58217,-0.20401,0.23228,-0.05283,0.0,9.08069,1
8.23,-0.67112,-2.25534,-8.90748,0.91301,-0.56037,-0.19784,0.23229,-0.05617,0.0,9.21304,1
8.24,-0.66224,-2.38606,-8.97614,0.86225,-0.53886,-0.19119,0.23232,-0.05901,0.0,9.31144,1
8.25,-0.65551,-2.44946,-9.04213,0.812,-0.51749,-0.18429,0.23235,-0.06161,0.0,9.39094,1
8.26,-0.64878,-2.51287,-9.10813,0.76174,-0.49613,-0.1774,0.23238,-0.06421,0.0,9.47066,1
8.27,-0.64582,-2.56117,-9.18704,0.71918,-0.47851,-0.17652,0.23239,-0.06538,0.0,9.5592,1
8.28,-0.6504,-2.57926,-9.29175,0.69202,-0.46841,-0.18768,0.23238,-0.06372,0.0,9.665,1
8.29,-0.65499,-2.59736,-9.39647,0.66485,-0.4583,-0.19884,0.23236,-0.06206,0.0,9.77082,1
8.3,-0.65957,-2.61545,-9.50118,0.63769,-0.44819,-0.21,0.23235,-0.0604,0.0,9.87664,1
8.31,-0.60939,-2.5679,-9.55802,0.63876,-0.45199,-0.22513,0.23232,-0.05731,0.0,9.9157,1
8.32,-0.5592,-2.52034,-9.61485,0.63982,-0.45578,-0.24027,0.23229,-0.05421,0.0,9.95541,1
8.33,-0.50901,-2.47278,-9.67169,0.64089,-0.45958,-0.2554,0.23226,-0.05112,0.0,9.99576,1
8.34,-0.49782,-2.43612,-9.69856,0.64419,-0.46691,-0.27512,0.23212,-0.04871,0.0,10.01222,1
8.35,-0.50613,-2.40492,-9.71046,0.64862,-0.47601,-0.29711,0.23193,-0.04665,0.0,10.01663,1
8.36,-0.51444,-2.37372,-9.72235,0.65304,-0.48511,-0.31911,0.23175,-0.04459,0.0,10.02115,1
8.37,-0.52086,-2.36229,-9.72891,0.65777,-0.49347,-0.33995,0.23146,-0.04383,0.0,10.02514,1
8.38,-0.52348,-2.3904,-9.7248,0.66309,-0.50033,-0.35844,0.23097,-0.04565,0.0,10.02795,1
8.39,-0.52611,-2.4185,-9.72069,0.66842,-0.5072,-0.37694,0.23049,-0.04748,0.0,10.03084,1
8.4,-0.52874,-2.44661,-9.71657,0.67374,-0.51406,-0.39544,0.23,-0.0493,0.0,10.03381,1
8.41,-0.4839,-2.51753,-9.67334,0.6814,-0.51396,-0.40035,0.22941,-0.04839,0.0,10.00728,1
8.42,-0.43907,-2.58844,-9.63011,0.68907,-0.51386,-0.40527,0.22881,-0.04748,0.0,9.98157,1
8.43,-0.39424,-2.65935,-9.58688,0.69673,-0.51375,-0.41019,0.22822,-0.04656,0.0,9.9567,1
8.44,-0.34977,-2.73316,-9.57029,0.69979,-0.5116,-0.41074,0.22755,-0.04546,0.0,9.95906,1
8.45,-0.30549,-2.80842,-9.56701,0.70055,-0.50843,-0.40912,0.22685,-0.04427,0.0,9.97538,1
8.46,-0.26121,-2.88368,-9.56374,0.70132,-0.50525,-0.40749,0.22615,-0.04308,0.0,9.99244,1
8.47,-0.21029,-2.94511,-9.56006,0.70217,-0.50351,-0.40269,0.2254,-0.04185,0.0,10.00563,1
8.48,-0.14611,-2.97891,-9.55557,0.70321,-0.50463,-0.39152,0.22455,-0.04054,0.0,10.0102,1
8.49,-0.08193,-3.0127,-9.55109,0.70425,-0.50575,-0.38036,0.2237,-0.03923,0.0,10.0153,1
8.5,-0.01775,-3.04649,-9.5466,0.70528,-0.50687,-0.36919,0.22285,-0.03792,0.0,10.02093,1
8.51,0.04662,-3.05535,-9.56604,0.71707,-0.5161,-0.35671,0.22188,-0.03949,0.0,10.04224,1
8.52,0.111,-3.06421,-9.58549,0.72886,-0.52533,-0.34423,0.22092,-0.04105,0.0,10.06396,1
8.53,0.17537,-3.07307,-9.60493,0.74065,-0.53456,-0.33174,0.21995,-0.04262,0.0,10.08609,1
8.54,0.22104,-3.09831,-9.59233,0.74307,-0.53936,-0.31866,0.21882,-0.04256,0.0,10.08272,1
8.55,0.25736,-3.13173,-9.56371,0.74082,-0.54194,-0.30529,0.21762,-0.04169,0.0,10.0667,1
8.56,0.29368,-3.16514,-9.53509,0.73856,-0.54452,-0.29192,0.21641,-0.04082,0.0,10.05099,1
8.57,0.3251,-3.21533,-9.50795,0.7334,-0.54304,-0.27933,0.21512,-0.03998,0.0,10.04217,1
8.58,0.34671,-3.29903,-9.48376,0.72245,-0.53343,-0.2683,0.21366,-0.0392,0.0,10.04717,1
8.59,0.36833,-3.38273,-9.45958,0.7115,-0.52383,-0.25728,0.2122,-0.03842,0.0,10.05297,1
8.6,0.38995,-3.46644,-9.43539,0.70055,-0.51423,-0.24625,0.21074,-0.03763,0.0,10.05957,1
8.61,0.44567,-3.58671,-9.4349,0.70385,-0.50402,-0.23348,0.20933,-0.03216,0.0,10.10349,1
8.62,0.50139,-3.70698,-9.43441,0.70715,-0.49381,-0.22071,0.20793,-0.02669,0.0,10.14895,1
8.63,0.55712,-3.82725,-9.43393,0.71046,-0.4836,-0.20794,0.20653,-0.02122,0.0,10.19594,1
8.64,0.6147,-3.8946,-9.4312,0.70842,-0.46483,-0.18848,0.20504,-0.01521,0.0,10.2222,1
8.65,0.67321,-3.9355,-9.42736,0.70372,-0.44179,-0.16567,0.20352,-0.00892,0.0,10.23799,1
8.66,0.73172,-3.97639,-9.42352,0.69901,-0.41875,-0.14286,0.202,-0.00264,0.0,10.25426,1
8.67,0.80416,-4.04751,-9.28082,0.68055,-0.39889,-0.11652,0.20047,0.00381,0.0,10.15691,1
8.68,0.90443,-4.1791,-8.86042,0.63455,-0.38541,-0.08311,0.19894,0.0106,0.0,9.83819,1
8.69,1.00471,-4.3107,-8.44001,0.58856,-0.37192,-0.0497,0.1974,0.01739,0.0,9.53023,1
8.7,1.10499,-4.44229,-8.0196,0.54256,-0.35844,-0.01629,0.19587,0.02419,0.0,9.23412,1
8.71,1.00489,-4.41853,-7.95488,0.51201,-0.33993,-0.00526,0.19474,0.02117,0.0,9.15496,1
8.72,0.9048,-4.39476,-7.89016,0.48146,-0.32143,0.00576,0.19362,0.01816,0.0,9.07674,1
8.73,0.80471,-4.371,-7.82544,0.45091,-0.30292,0.01679,0.19249,0.01515,0.0,8.99948,1
8.74,0.76801,-4.35865,-7.73315,0.42505,-0.28627,0.0265,0.19139,0.01489,0.0,8.91007,1
8.75,0.763,-4.352,-7.62708,0.40154,-0.27054,0.03554,0.1903,0.01602,0.0,8.81444,1
8.76,0.758,-4.34536,-7.52101,0.37803,-0.25481,0.04458,0.18921,0.01714,0.0,8.71907,1
8.77,0.71719,-4.36816,-7.39389,0.35179,-0.23528,0.04858,0.18815,0.01604,0.0,8.61771,1
8.78,0.60479,-4.44986,-7.2247,0.32011,-0.20815,0.0425,0.18713,0.01049,0.0,8.50667,1
8.79,0.49238,-4.53157,-7.05551,0.28842,-0.18101,0.03642,0.18612,0.00494,0.0,8.39987,1
8.8,0.37997,-4.61327,-6.88632,0.25673,-0.15388,0.03033,0.18511,-0.00061,0.0,8.29747,1
8.81,0.3643,-4.65124,-6.80355,0.22341,-0.13026,0.02457,0.18451,-0.00172,0.0,8.24955,1
8.82,0.34862,-4.68921,-6.72078,0.19009,-0.10665,0.01881,0.18391,-0.00283,0.0,8.20239,1
8.83,0.33295,-4.72718,-6.63801,0.15677,-0.08304,0.01305,0.18331,-0.00393,0.0,8.156,1
8.84,0.40132,-4.76259,-6.59392,0.12829,-0.0732,0.01257,0.1829,-0.00182,0.0,8.14391,1
8.85,0.51172,-4.79673,-6.56918,0.10224,-0.07024,0.01472,0.1826,0.0019,0.0,8.15013,1
8.86,0.62212,-4.83086,-6.54443,0.07619,-0.06729,0.01687,0.1823,0.00562,0.0,8.15805,1
8.87,0.70486,-4.8462,-6.56532,0.05119,-0.06402,0.01905,0.18205,0.00929,0.0,8.1906,1
8.88,0.73227,-4.82396,-6.67746,0.02831,-0.06012,0.02128,0.18191,0.01285,0.0,8.27014,1
8.89,0.75969,-4.80171,-6.7896,0.00542,-0.05623,0.0235,0.18177,0.01641,0.0,8.35059,1
8.9,0.78711,-4.77947,-6.90175,-0.01746,-0.05234,0.02573,0.18163,0.01998,0.0,8.4319,1
8.91,0.77493,-4.74736,-7.03188,-0.03196,-0.05221,0.02834,0.18155,0.02003,0.0,8.5197,1
8.92,0.76276,-4.71526,-7.16201,-0.04646,-0.05208,0.03094,0.18146,0.02008,0.0,8.60871,1
8.93,0.75058,-4.68315,-7.29214,-0.06097,-0.05195,0.03355,0.18138,0.02013,0.0,8.69888,1
8.94,0.7383,-4.66109,-7.39933,-0.07209,-0.05015,0.03582,0.18128,0.01983,0.0,8.77616,1
8.95,0.72597,-4.64406,-7.49504,-0.08152,-0.0475,0.03792,0.18118,0.01936,0.0,8.84703,1
8.96,0.71364,-4.62703,-7.59075,-0.09096,-0.04486,0.04001,0.18108,0.01888,0.0,8.91842,1
8.97,0.70194,-4.61068,-7.68098,-0.09982,-0.04308,0.04114,0.18098,0.01862,0.0,8.98601,1
8.98,0.6915,-4.59567,-7.76023,-0.10755,-0.04304,0.04032,0.18087,0.01877,0.0,9.04541,1
8.99,0.68107,-4.58067,-7.83948,-0.11528,-0.04299,0.0395,0.18077,0.01892,0.0,9.10515,1
9.0,0.67063,-4.56566,-7.91873,-0.12301,-0.04295,0.03868,0.18066,0.01908,0.0,9.16522,1
9.01,0.65819,-4.53225,-7.99226,-0.12967,-0.04428,0.04001,0.18057,0.01822,0.0,9.21145,1
9.02,0.64574,-4.49884,-8.0658,-0.13633,-0.04561,0.04134,0.18047,0.01737,0.0,9.25817,1
9.03,0.6333,-4.46543,-8.13933,-0.14299,-0.04695,0.04267,0.18037,0.01652,0.0,9.30537,1
9.04,0.63099,-4.45143,-8.18804,-0.14743,-0.0477,0.04299,0.18026,0.01625,0.0,9.34116,1
9.05,0.63375,-4.44713,-8.22433,-0.15078,-0.04817,0.0428,0.18016,0.01628,0.0,9.37114,1
9.06,0.63652,-4.44283,-8.26063,-0.15412,-0.04864,0.04262,0.18005,0.01631,0.0,9.40116,1
9.07,0.63732,-4.43234,-8.29958,-0.15668,-0.0486,0.04321,0.17994,0.01634,0.0,9.43052,1
9.08,0.6342,-4.40945,-8.34383,-0.15768,-0.04755,0.04534,0.17984,0.01639,0.0,9.45859,1
9.09,0.63109,-4.38656,-8.38809,-0.15868,-0.04649,0.04748,0.17975,0.01643,0.0,9.48685,1
9.1,0.62798,-4.36367,-8.43235,-0.15968,-0.04544,0.04961,0.17965,0.01648,0.0,9.51528,1
9.11,0.6302,-4.33245,-8.47435,-0.16064,-0.04674,0.0492,0.17954,0.01624,0.0,9.53844,1
9.12,0.63242,-4.30122,-8.51635,-0.16159,-0.04804,0.04879,0.17943,0.01599,0.0,9.56183,1
9.13,0.63465,-4.27,-8.55835,-0.16255,-0.04934,0.04837,0.17933,0.01575,0.0,9.58545,1
9.14,0.63054,-4.25002,-8.58794,-0.16319,-0.04883,0.04754,0.17921,0.01585,0.0,9.60276,1
9.15,0.62328,-4.23567,-8.61134,-0.16368,-0.04742,0.0465,0.1791,0.01611,0.0,9.61689,1
9.16,0.61601,-4.22133,-8.63474,-0.16416,-0.04602,0.04546,0.17898,0.01638,0.0,9.63108,1
9.17,0.60661,-4.20667,-8.65507,-0.16495,-0.0457,0.04448,0.17887,0.01643,0.0,9.64232,1
9.18,0.59294,-4.1914,-8.66928,-0.16632,-0.04756,0.04364,0.17877,0.01605,0.0,9.64758,1
9.19,0.57928,-4.17613,-8.68348,-0.1677,-0.04942,0.0428,0.17867,0.01567,0.0,9.6529,1
9.2,0.56561,-4.16086,-8.69769,-0.16907,-0.05128,0.04196,0.17857,0.01529,0.0,9.65828,1
9.21,0.56995,-4.13959,-8.71739,-0.17003,-0.05342,0.04039,0.17845,0.01514,0.0,9.66716,1
9.22,0.5743,-4.11831,-8.73709,-0.17098,-0.05555,0.03883,0.17832,0.01498,0.0,9.67611,1
9.23,0.57864,-4.09704,-8.7568,-0.17194,-0.05769,0.03727,0.1782,0.01483,0.0,9.68515,1
9.24,0.58598,-4.08178,-8.77698,-0.172,-0.05721,0.03748,0.17808,0.0148,0.0,9.6974,1
9.25,0.59481,-4.06951,-8.79739,-0.17162,-0.05542,0.03857,0.17795,0.01484,0.0,9.71127,1
9.26,0.60365,-4.05724,-8.8178,-0.17124,-0.05363,0.03966,0.17783,0.01487,0.0,9.72519,1
9.27,0.60495,-4.04493,-8.83653,-0.17191,-0.05269,0.04068,0.17771,0.01465,0.0,9.73713,1
9.28,0.5912,-4.03253,-8.85188,-0.17468,-0.05347,0.04153,0.17758,0.01392,0.0,9.74508,1
9.29,0.57744,-4.02014,-8.86723,-0.17746,-0.05424,0.04239,0.17746,0.01319,0.0,9.75309,1
9.3,0.56369,-4.00774,-8.88258,-0.18023,-0.05501,0.04324,0.17733,0.01246,0.0,9.76115,1
9.31,0.55433,-3.98539,-8.89443,-0.18209,-0.05383,0.04115,0.17722,0.01261,0.0,9.76224,1
9.32,0.54496,-3.96303,-8.90627,-0.18394,-0.05264,0.03906,0.1771,0.01276,0.0,9.76342,1
9.33,0.5356,-3.94068,-8.91812,-0.1858,-0.05145,0.03697,0.17699,0.01291,0.0,9.76466,1
9.34,0.54671,-3.92959,-8.92847,-0.18649,-0.0521,0.03659,0.17686,0.01303,0.0,9.77027,1
9.35,0.56805,-3.92415,-8.93808,-0.18659,-0.05367,0.03707,0.17673,0.01314,0.0,9.77808,1
9.36,0.58939,-3.9187,-8.94769,-0.1867,-0.05524,0.03755,0.1766,0.01325,0.0,9.78595,1
9.37,0.6008,-3.90313,-8.96074,-0.18657,-0.05642,0.03862,0.17647,0.01324,0.0,9.79236,1
9.38,0.59235,-3.86733,-8.98066,-0.18596,-0.0568,0.04088,0.17635,0.01297,0.0,9.79589,1
9.39,0.5839,-3.83152,-9.00059,-0.18536,-0.05718,0.04314,0.17623,0.0127,0.0,9.79959,1
9.4,0.57545,-3.79571,-9.02051,-0.18475,-0.05757,0.0454,0.17611,0.01243,0.0,9.80348,1
9.41,0.56658,-3.79066,-9.01113,-0.18474,-0.05542,0.04334,0.17598,0.01188,0.0,9.79237,1
9.42,0.5577,-3.7856,-9.00174,-0.18472,-0.05328,0.04129,0.17586,0.01134,0.0,9.78127,1
9.43,0.54882,-3.78055,-8.99236,-0.1847,-0.05113,0.03923,0.17573,0.01079,0.0,9.77018,1
9.44,0.55561,-3.76557,-9.00861,-0.18565,-0.05095,0.03909,0.1756,0.01097,0.0,9.77974,1
9.45,0.57024,-3.74564,-9.03766,-0.18709,-0.05176,0.03991,0.17547,0.01151,0.0,9.79971,1
9.46,0.58487,-3.7257,-9.06672,-0.18852,-0.05257,0.04073,0.17534,0.01206,0.0,9.81979,1
9.47,0.59219,-3.70376,-9.08704,-0.19032,-0.05296,0.0413,0.17522,0.01234,0.0,9.83071,1
9.48,0.5849,-3.67781,-9.08989,-0.19285,-0.05253,0.0414,0.17509,0.01211,0.0,9.82316,1
9.49,0.57761,-3.65186,-9.09274,-0.19538,-0.05209,0.04149,0.17496,0.01187,0.0,9.81568,1
9.5,0.57032,-3.62591,-9.09559,-0.19791,-0.05166,0.04158,0.17483,0.01163,0.0,9.80827,1
9.51,0.55752,-3.59666,-9.11121,-0.19834,-0.05412,0.03954,0.17465,0.01349,0.0,9.81126,1
9.52,0.54473,-3.56741,-9.12683,-0.19877,-0.05658,0.03749,0.17447,0.01535,0.0,9.81438,1
9.53,0.53194,-3.53816,-9.14245,-0.19921,-0.05904,0.03545,0.17428,0.0172,0.0,9.81763,1
9.54,0.5174,-3.49775,-9.16141,-0.20403,-0.05735,0.03228,0.17405,0.01881,0.0,9.82005,1
9.55,0.50199,-3.45175,-9.18203,-0.21104,-0.05357,0.02856,0.17379,0.02028,0.0,9.82223,1
9.56,0.48658,-3.40575,-9.20266,-0.21805,-0.04979,0.02483,0.17354,0.02176,0.0,9.82471,1
9.57,0.49187,-3.35068,-9.21472,-0.22678,-0.04319,0.02531,0.17314,0.02487,0.0,9.81733,1
9.58,0.53856,-3.27744,-9.20964,-0.23894,-0.03094,0.03421,0.17248,0.03126,0.0,9.79026,1
9.59,0.58525,-3.20419,-9.20457,-0.2511,-0.01868,0.04311,0.17182,0.03765,0.0,9.76389,1
9.6,0.63195,-3.13095,-9.1995,-0.26326,-0.00643,0.05201,0.17116,0.04403,0.0,9.73822,1
9.61,0.62406,-3.09748,-9.20846,-0.27578,0.00454,0.06,0.17041,0.04541,0.0,9.73549,1
9.62,0.61618,-3.06401,-9.21743,-0.28829,0.01551,0.06799,0.16967,0.04678,0.0,9.73288,1
9.63,0.6083,-3.03054,-9.2264,-0.30081,0.02648,0.07598,0.16893,0.04816,0.0,9.7304,1
9.64,0.60238,-3.01319,-9.23817,-0.31308,0.03694,0.08259,0.16817,0.04916,0.0,9.73581,1
9.65,0.59744,-3.00389,-9.25134,-0.32522,0.04715,0.08851,0.16742,0.04997,0.0,9.74513,1
9.66,0.59251,-2.9946,-9.26451,-0.33737,0.05736,0.09443,0.16667,0.05078,0.0,9.75448,1
9.67,0.57621,-3.00241,-9.28127,-0.34426,0.06309,0.09775,0.16598,0.04919,0.0,9.77182,1
9.68,0.53719,-3.04444,-9.30519,-0.34065,0.05988,0.09585,0.1654,0.04281,0.0,9.80529,1
9.69,0.49818,-3.08647,-9.32912,-0.33705,0.05667,0.09395,0.16483,0.03643,0.0,9.83905,1
9.7,0.45917,-3.12851,-9.35304,-0.33344,0.05345,0.09205,0.16426,0.03004,0.0,9.87309,1
9.71,0.44722,-3.11099,-9.33689,-0.33319,0.05025,0.08566,0.16386,0.02827,0.0,9.85169,1
9.72,0.43528,-3.09347,-9.32074,-0.33294,0.04704,0.07927,0.16346,0.0265,0.0,9.83032,1
9.73,0.42333,-3.07595,-9.30459,-0.3327,0.04384,0.07288,0.16305,0.02473,0.0,9.80898,1
9.74,0.41941,-3.03946,-9.30845,-0.33442,0.04199,0.06901,0.16264,0.02578,0.0,9.8011,1
9.75,0.41951,-2.99349,-9.32232,-0.33713,0.04082,0.06641,0.16222,0.02823,0.0,9.80013,1
9.76,0.41961,-2.94752,-9.33618,-0.33984,0.03964,0.06381,0.16181,0.03068,0.0,9.7994,1
9.77,0.42116,-2.89644,-9.35932,-0.34113,0.03785,0.05862,0.16139,0.03286,0.0,9.80631,1
9.78,0.42563,-2.83516,-9.401,-0.3396,0.0348,0.04824,0.16097,0.03452,0.0,9.82843,1
9.79,0.43009,-2.77388,-9.44268,-0.33807,0.03176,0.03787,0.16055,0.03617,0.0,9.85107,1
9.8,0.43455,-2.7126,-9.48436,-0.33654,0.02872,0.02749,0.16013,0.03783,0.0,9.87422,1
9.81,0.42152,-2.69818,-9.482,-0.34441,0.02814,0.01997,0.15985,0.0362,0.0,9.86743,1
9.82,0.4085,-2.68376,-9.47964,-0.35229,0.02756,0.01244,0.15958,0.03458,0.0,9.86067,1
9.83,0.39547,-2.66933,-9.47727,-0.36017,0.02698,0.00492,0.15931,0.03295,0.0,9.85396,1
9.84,0.37461,-2.62344,-9.48082,-0.36702,0.02654,-0.00022,0.15901,0.03022,0.0,9.84422,1
9.85,0.34983,-2.56181,-9.48732,-0.37336,0.02616,-0.00417,0.1587,0.02693,0.0,9.83334,1
9.86,0.32506,-2.50018,-9.49383,-0.37969,0.02578,-0.00812,0.15838,0.02364,0.0,9.8229,1
9.87,0.3075,-2.44036,-9.50473,-0.3846,0.0249,-0.01138,0.15806,0.02098,0.0,9.81783,1
9.88,0.30438,-2.38419,-9.52444,-0.38667,0.02302,-0.01324,0.15773,0.0196,0.0,9.82303,1
9.89,0.30125,-2.32801,-9.54415,-0.38873,0.02115,-0.01511,0.1574,0.01822,0.0,9.82859,1
9.9,0.29813,-2.27183,-9.56386,-0.39079,0.01928,-0.01697,0.15707,0.01684,0.0,9.8345,1
9.91,0.29905,-2.23916,-9.58343,-0.39537,0.02189,-0.01931,0.15671,0.01682,0.0,9.84609,1
9.92,0.29997,-2.20648,-9.603,-0.39995,0.0245,-0.02164,0.15636,0.01681,0.0,9.8578,1
9.93,0.30089,-2.17381,-9.62258,-0.40453,0.02712,-0.02398,0.156,0.01679,0.0,9.86965,1
9.94,0.31468,-2.13776,-9.63699,-0.40929,0.02704,-0.02644,0.15564,0.01654,0.0,9.87627,1
9.95,0.3349,-2.10002,-9.64883,-0.41415,0.02562,-0.02896,0.15526,0.01617,0.0,9.88039,1
9.96,0.35512,-2.06228,-9.66067,-0.41901,0.0242,-0.03148,0.15489,0.0158,0.0,9.88471,1
9.97,0.37025,-2.02075,-9.67672,-0.42177,0.02313,-0.03305,0.15452,0.01545,0.0,9.89239,1
9.98,0.37517,-1.97163,-9.70119,-0.42035,0.02278,-0.03272,0.15416,0.01513,0.0,9.90663,1
9.99,0.38009,-1.92251,-9.72567,-0.41892,0.02243,-0.03239,0.1538,0.01482,0.0,9.92115,1
10.0,0.38501,-1.8734,-9.75015,-0.4175,0.02209,-0.03206,0.15344,0.0145,0.0,9.93596,1
10.01,0.38698,-1.84374,-9.74021,-0.4207,0.02173,-0.03369,0.15306,0.01406,0.0,9.92073,1
10.02,0.38895,-1.81407,-9.73028,-0.42389,0.02138,-0.03533,0.15268,0.01361,0.0,9.90558,1
10.03,0.39092,-1.78441,-9.72034,-0.42708,0.02102,-0.03697,0.1523,0.01316,0.0,9.8905,1
10.04,0.39119,-1.75539,-9.72376,-0.42683,0.02255,-0.03872,0.15192,0.01281,0.0,9.88868,1
10.05,0.39062,-1.72669,-9.73386,-0.42485,0.02503,-0.04053,0.15153,0.01251,0.0,9.89354,1
10.06,0.39005,-1.69799,-9.74396,-0.42287,0.02751,-0.04234,0.15115,0.0122,0.0,9.89849,1
10.07,0.3911,-1.66164,-9.75635,-0.42074,0.02924,-0.04304,0.15076,0.01183,0.0,9.90457,1
10.08,0.39539,-1.60998,-9.77334,-0.41833,0.02947,-0.04153,0.15036,0.01131,0.0,9.91295,1
10.09,0.39968,-1.55832,-9.79034,-0.41592,0.0297,-0.04002,0.14997,0.0108,0.0,9.92163,1
10.1,0.40398,-1.50666,-9.80733,-0.41351,0.02993,-0.03851,0.14957,0.01029,0.0,9.9306,1
10.11,0.40835,-1.46865,-9.78998,-0.41539,0.03157,-0.03946,0.14918,0.01058,0.0,9.90794,1
10.12,0.41272,-1.43065,-9.77263,-0.41727,0.03321,-0.0404,0.14878,0.01086,0.0,9.88541,1
10.13,0.4171,-1.39264,-9.75528,-0.41914,0.03484,-0.04135,0.14839,0.01115,0.0,9.863,1
10.14,0.41669,-1.35303,-9.75183,-0.41945,0.03687,-0.0426,0.14798,0.01106,0.0,9.85406,1
10.15,0.41388,-1.31262,-9.75532,-0.41898,0.0391,-0.04401,0.14757,0.01077,0.0,9.85194,1
10.16,0.41108,-1.27221,-9.75882,-0.4185,0.04132,-0.04541,0.14716,0.01049,0.0,9.84998,1
10.17,0.41003,-1.22686,-9.76297,-0.41872,0.04395,-0.04635,0.14674,0.01037,0.0,9.84829,1
10.18,0.41248,-1.17163,-9.76841,-0.42032,0.04736,-0.04637,0.14633,0.01057,0.0,9.84706,1
10.19,0.41493,-1.1164,-9.77385,-0.42192,0.05077,-0.04638,0.14591,0.01078,0.0,9.84615,1
10.2,0.41737,-1.06117,-9.77929,-0.42352,0.05418,-0.04639,0.1455,0.01098,0.0,9.84555,1
10.21,0.4214,-1.02864,-9.78405,-0.42072,0.05394,-0.04426,0.14508,0.01033,0.0,9.847,1
10.22,0.42543,-0.9961,-9.78881,-0.41792,0.0537,-0.04212,0.14467,0.00967,0.0,9.84856,1
10.23,0.42946,-0.96357,-9.79358,-0.41512,0.05346,-0.03999,0.14425,0.00902,0.0,9.85023,1
10.24,0.43276,-0.92602,-9.79303,-0.41374,0.0549,-0.03921,0.14382,0.00854,0.0,9.84623,1
10.25,0.4357,-0.88596,-9.78983,-0.41308,0.05718,-0.03911,0.14337,0.00815,0.0,9.83949,1
10.26,0.43864,-0.8459,-9.78664,-0.41241,0.05945,-0.03901,0.14293,0.00775,0.0,9.83291,1
10.27,0.44315,-0.80163,-9.78313,-0.41195,0.06253,-0.03914,0.14248,0.00748,0.0,9.82592,1
10.28,0.45081,-0.74893,-9.77902,-0.41189,0.06719,-0.03974,0.14204,0.00744,0.0,9.81801,1
10.29,0.45847,-0.69624,-9.77491,-0.41183,0.07186,-0.04034,0.1416,0.0074,0.0,9.81039,1
10.3,0.46613,-0.64354,-9.7708,-0.41178,0.07652,-0.04094,0.14115,0.00737,0.0,9.80306,1
10.31,0.47563,-0.60466,-9.77537,-0.41064,0.07514,-0.04032,0.14072,0.00746,0.0,9.80559,1
10.32,0.48512,-0.56577,-9.77994,-0.40951,0.07375,-0.03969,0.14028,0.00755,0.0,9.80829,1
10.33,0.49462,-0.52689,-9.78451,-0.40838,0.07237,-0.03907,0.13985,0.00764,0.0,9.81116,1
10.34,0.49851,-0.48716,-9.78575,-0.40512,0.07253,-0.03765,0.13941,0.00728,0.0,9.81054,1
10.35,0.4996,-0.44699,-9.78533,-0.4008,0.07347,-0.03583,0.13898,0.00669,0.0,9.80827,1
10.36,0.5007,-0.40683,-9.78491,-0.39648,0.07441,-0.034,0.13855,0.00611,0.0,9.80616,1
10.37,0.49736,-0.36813,-9.78193,-0.39257,0.07482,-0.03205,0.13811,0.00559,0.0,9.80148,1
10.38,0.48517,-0.33235,-9.77381,-0.38947,0.07419,-0.02981,0.13767,0.0052,0.0,9.79149,1
10.39,0.47298,-0.29658,-9.76569,-0.38638,0.07356,-0.02758,0.13723,0.00482,0.0,9.78164,1
10.4,0.4608,-0.26081,-9.75758,-0.38329,0.07292,-0.02535,0.13679,0.00443,0.0,9.77193,1
10.41,0.47803,-0.22878,-9.76124,-0.37355,0.07027,-0.0223,0.13639,0.00471,0.0,9.77562,1
10.42,0.49527,-0.19675,-9.76491,-0.36382,0.06761,-0.01925,0.136,0.00499,0.0,9.77944,1
10.43,0.5125,-0.16472,-9.76858,-0.35408,0.06495,-0.0162,0.13561,0.00527,0.0,9.7834,1
10.44,0.52143,-0.14038,-9.7641,-0.3472,0.06346,-0.0141,0.13525,0.00595,0.0,9.77902,1
10.45,0.52621,-0.11987,-9.75554,-0.34174,0.06255,-0.01248,0.13489,0.00683,0.0,9.77045,1
10.46,0.53099,-0.09937,-9.74698,-0.33628,0.06163,-0.01085,0.13453,0.00772,0.0,9.76193,1
10.47,0.53319,-0.07145,-9.74012,-0.33065,0.06084,-0.00884,0.13419,0.00836,0.0,9.75496,1
10.48,0.53023,-0.02872,-9.73667,-0.32469,0.06029,-0.00609,0.13387,0.00851,0.0,9.75114,1
10.49,0.52727,0.01402,-9.73322,-0.31874,0.05974,-0.00334,0.13356,0.00866,0.0,9.7475,1
10.5,0.52431,0.05675,-9.72977,-0.31278,0.05919,-0.00059,0.13325,0.00881,0.0,9.74405,1
10.51,0.53404,0.08441,-9.72589,-0.30366,0.05266,-0.00047,0.13295,0.00835,0.0,9.74091,1
10.52,0.54377,0.11207,-9.72202,-0.29455,0.04614,-0.00036,0.13265,0.00789,0.0,9.73786,1
10.53,0.55351,0.13973,-9.71814,-0.28544,0.03961,-0.00025,0.13235,0.00744,0.0,9.7349,1
10.54,0.55563,0.17014,-9.71136,-0.27727,0.03629,0.00153,0.13206,0.00825,0.0,9.72873,1
10.55,0.55395,0.20194,-9.70311,-0.26958,0.03459,0.00415,0.13177,0.0097,0.0,9.72101,1
10.56,0.55227,0.23373,-9.69486,-0.26189,0.03288,0.00677,0.13147,0.01115,0.0,9.71339,1
10.57,0.54512,0.26337,-9.69643,-0.25477,0.03144,0.00934,0.13119,0.01207,0.0,9.71532,1
10.58,0.52703,0.28869,-9.71765,-0.24883,0.03054,0.01182,0.13091,0.01194,0.0,9.73621,1
10.59,0.50894,0.31401,-9.73886,-0.24289,0.02963,0.01429,0.13064,0.0118,0.0,9.7572,1
10.6,0.49084,0.33933,-9.76007,-0.23694,0.02872,0.01676,0.13037,0.01167,0.0,9.77829,1
10.61,0.47526,0.3679,-9.76039,-0.23342,0.03124,0.01627,0.13007,0.01136,0.0,9.77887,1
10.62,0.45968,0.39647,-9.76071,-0.2299,0.03376,0.01578,0.12978,0.01105,0.0,9.77957,1
10.63,0.4441,0.42505,-9.76103,-0.22638,0.03628,0.01528,0.12949,0.01074,0.0,9.78037,1
10.64,0.43483,0.44994,-9.75738,-0.22194,0.03678,0.01644,0.12919,0.01147,0.0,9.77743,1
10.65,0.42872,0.47299,-9.75176,-0.21704,0.03626,0.01843,0.12889,0.01273,0.0,9.77263,1
10.66,0.4226,0.49604,-9.74613,-0.21213,0.03573,0.02042,0.12858,0.01398,0.0,9.76789,1
10.67,0.41978,0.52322,-9.73976,-0.20792,0.0361,0.0228,0.12828,0.01524,0.0,9.76284,1
10.68,0.42353,0.55863,-9.73194,-0.20508,0.03822,0.02598,0.12798,0.01648,0.0,9.75715,1
10.69,0.42727,0.59405,-9.72411,-0.20224,0.04035,0.02916,0.12768,0.01773,0.0,9.7516,1
10.7,0.43102,0.62947,-9.71628,-0.1994,0.04247,0.03235,0.12738,0.01897,0.0,9.74618,1
10.71,0.43694,0.63964,-9.72148,-0.20035,0.04793,0.03429,0.12702,0.02146,0.0,9.75229,1
10.72,0.44286,0.6498,-9.72667,-0.2013,0.05338,0.03622,0.12666,0.02395,0.0,9.75841,1
10.73,0.44877,0.65996,-9.73187,-0.20225,0.05884,0.03816,0.12629,0.02645,0.0,9.76454,1
10.74,0.4557,0.67919,-9.74385,-0.2042,0.06636,0.04261,0.12591,0.02888,0.0,9.77811,1
10.75,0.46312,0.70294,-9.75921,-0.20666,0.07492,0.04831,0.1255,0.03129,0.0,9.79545,1
10.76,0.47055,0.72669,-9.77458,-0.20912,0.08347,0.05401,0.1251,0.0337,0.0,9.81285,1
10.77,0.47197,0.75146,-9.78728,-0.21189,0.09091,0.05996,0.12469,0.03546,0.0,9.82742,1
10.78,0.4614,0.77827,-9.79462,-0.21528,0.0961,0.06639,0.12427,0.03595,0.0,9.83632,1
10.79,0.45083,0.80508,-9.80197,-0.21866,0.1013,0.07283,0.12386,0.03644,0.0,9.8453,1
10.8,0.44026,0.83189,-9.80931,-0.22205,0.10649,0.07927,0.12345,0.03693,0.0,9.85437,1
10.81,0.42659,0.87352,-9.80399,-0.22504,0.11476,0.08425,0.12299,0.038,0.0,9.85207,1
10.82,0.41292,0.91515,-9.79867,-0.22802,0.12302,0.08922,0.12254,0.03907,0.0,9.84997,1
10.83,0.39926,0.95677,-9.79334,-0.23101,0.13128,0.0942,0.12208,0.04014,0.0,9.84806,1
10.84,0.40695,0.98681,-9.7904,-0.23228,0.13754,0.10114,0.12165,0.04092,0.0,9.84841,1
10.85,0.42532,1.01104,-9.78864,-0.23269,0.14278,0.10908,0.12124,0.04156,0.0,9.8499,1
10.86,0.44369,1.03527,-9.78689,-0.2331,0.14803,0.11702,0.12082,0.04221,0.0,9.85149,1
10.87,0.45165,1.04987,-9.78325,-0.23309,0.15115,0.12178,0.12046,0.04043,0.0,9.84978,1
10.88,0.43876,1.04521,-9.77585,-0.23224,0.15002,0.1202,0.12023,0.03383,0.0,9.84135,1
10.89,0.42588,1.04055,-9.76844,-0.2314,0.14889,0.11862,0.11999,0.02722,0.0,9.83293,1
10.9,0.41299,1.03588,-9.76104,-0.23056,0.14776,0.11704,0.11975,0.02062,0.0,9.82454,1
10.91,0.38761,1.05581,-9.70629,-0.22355,0.14093,0.11246,0.11957,0.01988,0.0,9.77123,1
10.92,0.36224,1.07574,-9.65154,-0.21655,0.1341,0.10788,0.1194,0.01914,0.0,9.71806,1
10.93,0.33686,1.09567,-9.59679,-0.20954,0.12727,0.10331,0.11922,0.01841,0.0,9.665,1
10.94,0.31645,1.09519,-9.59419,-0.20011,0.12318,0.09854,0.11905,0.01569,0.0,9.66168,1
10.95,0.29852,1.08451,-9.61768,-0.18947,0.12044,0.09368,0.11888,0.01198,0.0,9.68324,1
10.96,0.28059,1.07383,-9.64117,-0.17883,0.11771,0.08882,0.11871,0.00827,0.0,9.70484,1
10.97,0.26934,1.07474,-9.65821,-0.16919,0.11436,0.0837,0.11857,0.0055,0.0,9.72156,1
10.98,0.27145,1.09884,-9.66238,-0.16155,0.10978,0.07804,0.11846,0.00463,0.0,9.72844,1
10.99,0.27356,1.12294,-9.66654,-0.15391,0.1052,0.07238,0.11835,0.00375,0.0,9.73539,1
11.0,0.27566,1.14704,-9.6707,-0.14627,0.10062,0.06672,0.11824,0.00287,0.0,9.74239,1
11.01,0.28458,1.17315,-9.66991,-0.13868,0.09585,0.05951,0.11814,0.00291,0.0,9.74497,1
11.02,0.2935,1.19926,-9.66912,-0.13109,0.09107,0.0523,0.11805,0.00296,0.0,9.74763,1
11.03,0.30243,1.22537,-9.66833,-0.1235,0.0863,0.04509,0.11795,0.003,0.0,9.75037,1
11.04,0.29926,1.24293,-9.67037,-0.11902,0.08262,0.03818,0.11784,0.00291,0.0,9.75451,1
11.05,0.29006,1.25621,-9.67383,-0.1161,0.07948,0.03142,0.11773,0.00276,0.0,9.75936,1
11.06,0.28086,1.2695,-9.67728,-0.11318,0.07634,0.02467,0.11762,0.00262,0.0,9.76423,1
11.07,0.27342,1.28622,-9.67989,-0.10934,0.07333,0.01936,0.11752,0.00252,0.0,9.7688,1
11.08,0.26953,1.30979,-9.68082,-0.10364,0.07058,0.01694,0.11742,0.00252,0.0,9.77274,1
11.09,0.26564,1.33336,-9.68175,-0.09794,0.06783,0.01452,0.11733,0.00253,0.0,9.77675,1
11.1,0.26175,1.35694,-9.68269,-0.09225,0.06508,0.0121,0.11723,0.00253,0.0,9.78081,1
11.11,0.2461,1.35798,-9.6814,-0.09177,0.06515,0.00722,0.11712,0.00234,0.0,9.77928,1
11.12,0.23044,1.35902,-9.68012,-0.09129,0.06523,0.00234,0.11702,0.00214,0.0,9.77777,1
11.13,0.21478,1.36006,-9.67884,-0.09081,0.0653,-0.00253,0.11691,0.00194,0.0,9.77629,1
11.14,0.21867,1.37022,-9.67481,-0.08869,0.06371,-0.00493,0.1168,0.002,0.0,9.77381,1
11.15,0.23232,1.38495,-9.66942,-0.08574,0.0613,-0.00608,0.1167,0.00218,0.0,9.77086,1
11.16,0.24597,1.39968,-9.66402,-0.08278,0.05888,-0.00723,0.1166,0.00236,0.0,9.76795,1
11.17,0.25719,1.40753,-9.66444,-0.08025,0.05751,-0.00838,0.11649,0.00239,0.0,9.76979,1
11.18,0.26354,1.40165,-9.67649,-0.07857,0.05824,-0.00953,0.11638,0.00215,0.0,9.78103,1
11.19,0.26989,1.39576,-9.68855,-0.07688,0.05897,-0.01068,0.11627,0.00191,0.0,9.79229,1
11.2,0.27623,1.38987,-9.7006,-0.0752,0.0597,-0.01182,0.11617,0.00167,0.0,9.80355,1
11.21,0.28219,1.41121,-9.69355,-0.07441,0.05949,-0.01321,0.11606,0.00162,0.0,9.7998,1
11.22,0.28815,1.43255,-9.6865,-0.07362,0.05929,-0.01459,0.11595,0.00156,0.0,9.79609,1
11.23,0.29411,1.45388,-9.67945,-0.07283,0.05908,-0.01598,0.11584,0.0015,0.0,9.79244,1
11.24,0.3093,1.47585,-9.67233,-0.07207,0.05682,-0.01803,0.11573,0.0016,0.0,9.78917,1
11.25,0.3291,1.49813,-9.66519,-0.07132,0.05355,-0.02041,0.11562,0.00177,0.0,9.78614,1
11.26,0.3489,1.52041,-9.65805,-0.07057,0.05027,-0.0228,0.11551,0.00194,0.0,9.78321,1
11.27,0.35989,1.53908,-9.65542,-0.06998,0.04739,-0.02421,0.1154,0.00196,0.0,9.78394,1
11.28,0.35327,1.55051,-9.66184,-0.06972,0.04529,-0.02369,0.11528,0.00169,0.0,9.79183,1
11.29,0.34666,1.56195,-9.66825,-0.06946,0.0432,-0.02316,0.11517,0.00143,0.0,9.79974,1
11.3,0.34004,1.57339,-9.67466,-0.0692,0.0411,-0.02264,0.11505,0.00116,0.0,9.80767,1
11.31,0.34173,1.57498,-9.66817,-0.06755,0.04139,-0.02372,0.11495,0.00119,0.0,9.80158,1
11.32,0.34341,1.57657,-9.66168,-0.0659,0.04167,-0.0248,0.11485,0.00121,0.0,9.79549,1
11.33,0.3451,1.57816,-9.65519,-0.06425,0.04196,-0.02588,0.11475,0.00124,0.0,9.7894,1
11.34,0.34549,1.57873,-9.65151,-0.06418,0.04114,-0.0249,0.11465,0.0014,0.0,9.78588,1
11.35,0.34525,1.57878,-9.64924,-0.06491,0.03977,-0.02288,0.11455,0.00162,0.0,9.78364,1
11.36,0.345,1.57884,-9.64697,-0.06563,0.03841,-0.02087,0.11446,0.00185,0.0,9.7814,1
11.37,0.34707,1.58075,-9.64339,-0.0653,0.03733,-0.01909,0.11437,0.00196,0.0,9.77825,1
11.38,0.35378,1.58637,-9.63721,-0.06287,0.03683,-0.01777,0.11431,0.00184,0.0,9.77331,1
11.39,0.36049,1.59198,-9.63103,-0.06043,0.03633,-0.01646,0.11425,0.00172,0.0,9.76837,1
11.4,0.36721,1.5976,-9.62484,-0.058,0.03583,-0.01514,0.11419,0.00159,0.0,9.76344,1
11.41,0.34906,1.5931,-9.62594,-0.05667,0.04091,-0.01308,0.11414,0.00115,0.0,9.76312,1
11.42,0.33092,1.58859,-9.62704,-0.05535,0.046,-0.01102,0.11409,0.0007,0.0,9.76284,1
11.43,0.31277,1.58409,-9.62813,-0.05403,0.05108,-0.00896,0.11404,0.00026,0.0,9.76259,1
11.44,0.31845,1.61172,-9.63376,-0.05164,0.05359,-0.00886,0.11397,3e-05,0.0,9.77284,1
11.45,0.33605,1.65541,-9.64166,-0.04873,0.05481,-0.00974,0.1139,-9e-05,0.0,9.78851,1
11.46,0.35365,1.6991,-9.64956,-0.04581,0.05604,-0.01063,0.11383,-0.00021,0.0,9.80438,1
11.47,0.37103,1.73805,-9.65499,-0.04235,0.05676,-0.01151,0.11375,-0.00019,0.0,9.8172,1
11.48,0.38798,1.76754,-9.6555,-0.03781,0.05648,-0.0124,0.11365,0.0001,0.0,9.82362,1
11.49,0.40493,1.79702,-9.65601,-0.03326,0.0562,-0.0133,0.11355,0.00039,0.0,9.83015,1
11.5,0.42187,1.82651,-9.65653,-0.02871,0.05592,-0.01419,0.11345,0.00068,0.0,9.8368,1
11.51,0.41708,1.78897,-9.67817,-0.02772,0.0571,-0.01747,0.11336,0.00069,0.0,9.85095,1
11.52,0.41228,1.75143,-9.69981,-0.02672,0.05827,-0.02076,0.11327,0.00069,0.0,9.86529,1
11.53,0.40748,1.7139,-9.72146,-0.02573,0.05945,-0.02404,0.11317,0.0007,0.0,9.87979,1
11.54,0.42526,1.71452,-9.72979,-0.02333,0.05829,-0.0256,0.11308,0.00106,0.0,9.88885,1
11.55,0.45431,1.73421,-9.73148,-0.02024,0.05595,-0.0263,0.11297,0.0016,0.0,9.89523,1
11.56,0.48337,1.75391,-9.73317,-0.01715,0.05361,-0.027,0.11287,0.00214,0.0,9.90174,1
11.57,0.50251,1.76768,-9.73036,-0.01466,0.05077,-0.02659,0.11277,0.00241,0.0,9.90238,1
11.58,0.50182,1.7696,-9.71858,-0.01335,0.04692,-0.02395,0.11268,0.00213,0.0,9.89111,1
11.59,0.50114,1.77153,-9.7068,-0.01204,0.04307,-0.02131,0.11258,0.00185,0.0,9.87985,1
11.6,0.50046,1.77346,-9.69501,-0.01074,0.03922,-0.01866,0.11248,0.00158,0.0,9.86858,1
11.61,0.49448,1.78741,-9.69112,-0.00015,0.03656,-0.01581,0.11237,0.00145,0.0,9.86697,1
11.62,0.48851,1.80137,-9.68722,0.01043,0.03391,-0.01296,0.11227,0.00133,0.0,9.86538,1
11.63,0.48254,1.81533,-9.68332,0.02101,0.03125,-0.0101,0.11216,0.00121,0.0,9.86382,1
11.64,0.47787,1.83259,-9.68191,0.03083,0.02975,-0.00913,0.11203,0.00133,0.0,9.8654,1
11.65,0.47384,1.8515,-9.68175,0.04027,0.02883,-0.00909,0.1119,0.00156,0.0,9.86858,1
11.66,0.46982,1.87041,-9.68158,0.04972,0.0279,-0.00905,0.11177,0.0018,0.0,9.87179,1
11.67,0.47166,1.87398,-9.67957,0.0582,0.0266,-0.00805,0.11163,0.00217,0.0,9.87058,1
11.68,0.48524,1.84687,-9.67387,0.06474,0.02455,-0.00513,0.11149,0.00281,0.0,9.86053,1
11.69,0.49882,1.81976,-9.66816,0.07128,0.0225,-0.0022,0.11136,0.00344,0.0,9.85057,1
11.7,0.5124,1.79265,-9.66246,0.07783,0.02046,0.00072,0.11122,0.00407,0.0,9.84069,1
11.71,0.48217,1.74889,-9.63701,0.07803,0.02111,0.00374,0.11111,0.0042,0.0,9.80628,1
11.72,0.45193,1.70512,-9.61157,0.07823,0.02176,0.00677,0.11099,0.00433,0.0,9.7721,1
11.73,0.42169,1.66136,-9.58613,0.07842,0.02241,0.0098,0.11088,0.00446,0.0,9.73816,1
11.74,0.40759,1.63777,-9.58219,0.07733,0.02401,0.01361,0.11079,0.00441,0.0,9.72969,1
11.75,0.40155,1.62427,-9.58901,0.07559,0.02609,0.01781,0.11071,0.00427,0.0,9.73389,1
11.76,0.39552,1.61077,-9.59583,0.07385,0.02817,0.02201,0.11063,0.00413,0.0,9.73812,1
11.77,0.40054,1.60379,-9.60367,0.07183,0.02823,0.02547,0.11055,0.00424,0.0,9.7449,1
11.78,0.42765,1.60984,-9.61358,0.06924,0.02427,0.02745,0.11048,0.00486,0.0,9.75681,1
11.79,0.45477,1.61589,-9.62349,0.06666,0.02031,0.02943,0.11041,0.00548,0.0,9.7688,1
11.8,0.48189,1.62195,-9.6334,0.06408,0.01634,0.03141,0.11033,0.0061,0.0,9.78086,1
11.81,0.45824,1.65434,-9.63573,0.06424,0.01482,0.02975,0.11024,0.00533,0.0,9.78745,1
11.82,0.43459,1.68674,-9.63806,0.06439,0.01329,0.02808,0.11015,0.00456,0.0,9.79419,1
11.83,0.41094,1.71914,-9.64039,0.06455,0.01177,0.02642,0.11006,0.00379,0.0,9.80109,1
11.84,0.40573,1.727,-9.64404,0.06695,0.00844,0.02409,0.10994,0.00356,0.0,9.80584,1
11.85,0.40975,1.72258,-9.64835,0.07047,0.00422,0.02144,0.10981,0.00359,0.0,9.80947,1
11.86,0.41376,1.71816,-9.65266,0.07399,-1e-05,0.01879,0.10967,0.00362,0.0,9.81311,1
11.87,0.41514,1.70602,-9.65816,0.07562,-0.00278,0.01704,0.10954,0.00368,0.0,9.81646,1
11.88,0.41123,1.67844,-9.66602,0.07346,-0.00264,0.01712,0.10942,0.00379,0.0,9.81928,1
11.89,0.40733,1.65086,-9.67389,0.07131,-0.0025,0.0172,0.10929,0.0039,0.0,9.82219,1
11.9,0.40342,1.62328,-9.68176,0.06916,-0.00237,0.01728,0.10917,0.00402,0.0,9.82518,1
11.91,0.39189,1.61184,-9.67624,0.06505,-0.00023,0.0173,0.10905,0.0038,0.0,9.81739,1
11.92,0.38036,1.60039,-9.67072,0.06094,0.0019,0.01733,0.10894,0.00358,0.0,9.80963,1
11.93,0.36883,1.58895,-9.6652,0.05683,0.00404,0.01735,0.10883,0.00336,0.0,9.80188,1
11.94,0.35644,1.58056,-9.66095,0.05434,0.00596,0.01657,0.10872,0.00311,0.0,9.79587,1
11.95,0.34362,1.5737,-9.65732,0.05266,0.00779,0.01538,0.10861,0.00285,0.0,9.79074,1
11.96,0.3308,1.56684,-9.6537,0.05099,0.00961,0.0142,0.1085,0.00258,0.0,9.78562,1
11.97,0.32082,1.56029,-9.65147,0.04961,0.01117,0.01316,0.10839,0.00238,0.0,9.78204,1
11.98,0.31652,1.55438,-9.65204,0.04882,0.01223,0.0124,0.10828,0.00232,0.0,9.78152,1
11.99,0.31221,1.54846,-9.65261,0.04804,0.01328,0.01165,0.10818,0.00226,0.0,9.781,1
12.0,0.30791,1.54254,-9.65317,0.04725,0.01434,0.01089,0.10807,0.0022,0.0,9.78049,1
12.01,0.30998,1.55259,-9.65887,0.04894,0.01377,0.01058,0.10796,0.00258,0.0,9.78777,1
12.02,0.31206,1.56263,-9.66456,0.05063,0.0132,0.01028,0.10785,0.00297,0.0,9.79505,1
12.03,0.31413,1.57267,-9.67026,0.05232,0.01264,0.00997,0.10773,0.00335,0.0,9.80234,1
12.04,0.32074,1.57544,-9.66314,0.05058,0.0135,0.01081,0.10762,0.00345,0.0,9.79597,1
12.05,0.32962,1.57456,-9.64961,0.04713,0.01507,0.01224,0.10752,0.00341,0.0,9.78279,1
12.06,0.3385,1.57369,-9.63608,0.04368,0.01665,0.01366,0.10741,0.00337,0.0,9.76961,1
12.07,0.34002,1.57761,-9.63195,0.04106,0.01763,0.0145,0.10731,0.00324,0.0,9.76621,1
12.08,0.32684,1.59108,-9.64661,0.04007,0.01743,0.01415,0.1072,0.00294,0.0,9.7824,1
12.09,0.31365,1.60455,-9.66126,0.03908,0.01723,0.01381,0.1071,0.00265,0.0,9.79862,1
12.1,0.30047,1.61803,-9.67592,0.03809,0.01703,0.01346,0.107,0.00235,0.0,9.81487,1
12.11,0.29373,1.623,-9.66006,0.03566,0.0188,0.01184,0.10688,0.00242,0.0,9.79986,1
12.12,0.28699,1.62797,-9.64421,0.03322,0.02057,0.01021,0.10676,0.00248,0.0,9.78486,1
12.13,0.28025,1.63294,-9.62836,0.03079,0.02233,0.00858,0.10664,0.00255,0.0,9.76987,1
12.14,0.28193,1.62782,-9.62831,0.03153,0.0247,0.00739,0.10651,0.00254,0.0,9.76902,1
12.15,0.28782,1.61766,-9.63617,0.03387,0.02736,0.00641,0.10639,0.00248,0.0,9.77525,1
12.16,0.29371,1.60749,-9.64403,0.03621,0.03002,0.00543,0.10627,0.00243,0.0,9.78149,1
12.17,0.30134,1.60167,-9.65024,0.03826,0.03253,0.00465,0.10615,0.00256,0.0,9.7869,1
12.18,0.31247,1.60455,-9.65318,0.03972,0.03473,0.00427,0.10602,0.00307,0.0,9.79061,1
12.19,0.32359,1.60742,-9.65612,0.04118,0.03693,0.00389,0.10589,0.00358,0.0,9.79434,1
12.2,0.33472,1.6103,-9.65905,0.04264,0.03914,0.00351,0.10577,0.00409,0.0,9.79808,1
12.21,0.34303,1.60381,-9.66828,0.04491,0.03826,0.00229,0.10564,0.00453,0.0,9.80641,1
12.22,0.35134,1.59733,-9.67752,0.04717,0.03739,0.00107,0.10551,0.00497,0.0,9.81475,1
12.23,0.35965,1.59084,-9.68675,0.04944,0.03652,-0.00016,0.10537,0.00541,0.0,9.8231,1
12.24,0.35554,1.59053,-9.6872,0.04958,0.03698,-0.0017,0.10524,0.00528,0.0,9.82334,1
12.25,0.34521,1.5933,-9.68326,0.04867,0.0381,-0.00341,0.1051,0.00485,0.0,9.81954,1
12.26,0.33488,1.59608,-9.67932,0.04777,0.03922,-0.00511,0.10496,0.00443,0.0,9.81574,1
12.27,0.32737,1.5973,-9.67431,0.04725,0.03905,-0.0063,0.10482,0.00404,0.0,9.81075,1
12.28,0.32548,1.59541,-9.66716,0.04752,0.03631,-0.00644,0.10467,0.00371,0.0,9.80333,1
12.29,0.3236,1.59353,-9.66001,0.04779,0.03356,-0.00657,0.10453,0.00338,0.0,9.7959,1
12.3,0.32171,1.59164,-9.65285,0.04806,0.03082,-0.00671,0.10438,0.00305,0.0,9.78848,1
12.31,0.33248,1.58306,-9.66704,0.05125,0.0286,-0.0069,0.10422,0.00315,0.0,9.80144,1
12.32,0.34326,1.57448,-9.68123,0.05444,0.02639,-0.00708,0.10407,0.00326,0.0,9.81443,1
12.33,0.35403,1.5659,-9.69542,0.05762,0.02417,-0.00726,0.10391,0.00336,0.0,9.82743,1
12.34,0.35204,1.56867,-9.70187,0.05984,0.02318,-0.00934,0.10375,0.0037,0.0,9.83418,1
12.35,0.34366,1.57713,-9.70446,0.06157,0.02279,-0.01236,0.10358,0.00415,0.0,9.83779,1
12.36,0.33528,1.58559,-9.70705,0.0633,0.0224,-0.01538,0.10341,0.0046,0.0,9.84141,1
12.37,0.32917,1.59175,-9.70515,0.06485,0.02298,-0.01833,0.10325,0.00489,0.0,9.84032,1
12.38,0.32759,1.59331,-9.69424,0.06604,0.02549,-0.02112,0.10308,0.00485,0.0,9.82976,1
12.39,0.32602,1.59486,-9.68334,0.06722,0.028,-0.02392,0.10292,0.00481,0.0,9.81921,1
12.4,0.32444,1.59642,-9.67243,0.0684,0.03051,-0.02671,0.10275,0.00477,0.0,9.80866,1
12.41,0.33626,1.58676,-9.67694,0.06777,0.03074,-0.02621,0.10259,0.00481,0.0,9.81194,1
12.42,0.34808,1.57711,-9.68145,0.06715,0.03097,-0.02571,0.10242,0.00484,0.0,9.81524,1
12.43,0.3599,1.56745,-9.68597,0.06652,0.0312,-0.02521,0.10226,0.00487,0.0,9.81857,1
12.44,0.36701,1.5636,-9.68904,0.06614,0.02956,-0.02537,0.10209,0.00514,0.0,9.82126,1
12.45,0.37177,1.56266,-9.6914,0.06589,0.02699,-0.02587,0.10192,0.00554,0.0,9.82362,1
12.46,0.37654,1.56171,-9.69376,0.06563,0.02442,-0.02636,0.10176,0.00593,0.0,9.82597,1
12.47,0.38168,1.5566,-9.69895,0.06615,0.02266,-0.02673,0.10159,0.00624,0.0,9.83048,1
12.48,0.38758,1.54318,-9.70978,0.06821,0.02254,-0.02686,0.10142,0.00635,0.0,9.83928,1
12.49,0.39348,1.52975,-9.72061,0.07027,0.02242,-0.02699,0.10126,0.00647,0.0,9.84811,1
12.5,0.39938,1.51632,-9.73144,0.07234,0.02229,-0.02712,0.10109,0.00659,0.0,9.85696,1
12.51,0.40342,1.5008,-9.71977,0.07625,0.02031,-0.02753,0.10094,0.00654,0.0,9.84322,1
12.52,0.40746,1.48528,-9.70809,0.08017,0.01833,-0.02793,0.10078,0.0065,0.0,9.8295,1
12.53,0.41149,1.46976,-9.69642,0.08408,0.01635,-0.02833,0.10063,0.00645,0.0,9.81581,1
12.54,0.40664,1.45726,-9.68619,0.08687,0.0152,-0.02839,0.10048,0.00624,0.0,9.80364,1
12.55,0.39734,1.44627,-9.6767,0.08908,0.01447,-0.02827,0.10034,0.00596,0.0,9.79225,1
12.56,0.38803,1.43527,-9.6672,0.0913,0.01374,-0.02814,0.1002,0.00567,0.0,9.78087,1
12.57,0.37914,1.42723,-9.65345,0.09345,0.01307,-0.02826,0.10006,0.00556,0.0,9.76575,1
12.58,0.37105,1.4251,-9.63118,0.09548,0.01251,-0.02885,0.09992,0.00581,0.0,9.74312,1
12.59,0.36296,1.42297,-9.60892,0.0975,0.01194,-0.02944,0.09979,0.00605,0.0,9.72049,1
12.6,0.35488,1.42084,-9.58665,0.09953,0.01138,-0.03003,0.09965,0.00629,0.0,9.69786,1
12.61,0.34996,1.40891,-9.5928,0.10146,0.01014,-0.02949,0.09952,0.00609,0.0,9.70203,1
12.62,0.34505,1.39698,-9.59896,0.10338,0.0089,-0.02895,0.09938,0.00589,0.0,9.70622,1
12.63,0.34014,1.38506,-9.60511,0.10531,0.00766,-0.02841,0.09925,0.00569,0.0,9.71042,1
12.64,0.34887,1.37532,-9.61933,0.10736,0.00847,-0.02796,0.09912,0.00564,0.0,9.72341,1
12.65,0.36443,1.36668,-9.63757,0.10948,0.01031,-0.02755,0.09898,0.00565,0.0,9.74081,1
12.66,0.37999,1.35804,-9.65581,0.11159,0.01215,-0.02715,0.09885,0.00567,0.0,9.75825,1
12.67,0.39187,1.34549,-9.67031,0.11294,0.01337,-0.02654,0.09871,0.00573,0.0,9.77132,1
12.68,0.39639,1.32513,-9.6773,0.11276,0.01333,-0.02551,0.09856,0.00585,0.0,9.77565,1
12.69,0.40092,1.30476,-9.6843,0.11258,0.01329,-0.02448,0.09841,0.00597,0.0,9.78002,1
12.7,0.40545,1.2844,-9.69129,0.1124,0.01326,-0.02346,0.09827,0.00609,0.0,9.78444,1
12.71,0.4071,1.28007,-9.68269,0.10959,0.01242,-0.02369,0.09813,0.00584,0.0,9.77542,1
12.72,0.40876,1.27574,-9.67409,0.10678,0.01158,-0.02392,0.09799,0.0056,0.0,9.7664,1
12.73,0.41042,1.27141,-9.66548,0.10397,0.01075,-0.02415,0.09785,0.00536,0.0,9.75738,1
12.74,0.41856,1.28317,-9.65937,0.10205,0.01133,-0.0238,0.0977,0.00536,0.0,9.75321,1
12.75,0.42996,1.30297,-9.65451,0.10059,0.01263,-0.02317,0.09755,0.00548,0.0,9.75152,1
12.76,0.44135,1.32277,-9.64964,0.09913,0.01393,-0.02253,0.0974,0.0056,0.0,9.74988,1
12.77,0.44755,1.3354,-9.64625,0.09836,0.01521,-0.02197,0.09725,0.00562,0.0,9.74852,1
12.78,0.44337,1.33369,-9.64579,0.09896,0.01647,-0.02156,0.09712,0.00547,0.0,9.74765,1
12.79,0.43919,1.33199,-9.64534,0.09957,0.01772,-0.02115,0.09698,0.00531,0.0,9.74678,1
12.8,0.43501,1.33029,-9.64488,0.10018,0.01897,-0.02073,0.09684,0.00515,0.0,9.7459,1
12.81,0.44551,1.26639,-9.65507,0.10503,0.02075,-0.01481,0.09678,0.00593,0.0,9.74795,1
12.82,0.45601,1.20249,-9.66526,0.10988,0.02253,-0.00888,0.09672,0.00672,0.0,9.75044,1
12.83,0.46651,1.13859,-9.67544,0.11473,0.02431,-0.00295,0.09666,0.0075,0.0,9.75337,1
12.84,0.47239,1.12241,-9.6772,0.11924,0.02411,0.00058,0.09663,0.00807,0.0,9.75352,1
12.85,0.47596,1.1301,-9.67474,0.12358,0.02293,0.00293,0.09662,0.00852,0.0,9.75214,1
12.86,0.47953,1.13778,-9.67228,0.12792,0.02174,0.00527,0.09662,0.00897,0.0,9.75077,1
12.87,0.48244,1.14098,-9.67331,0.1309,0.01937,0.00736,0.0966,0.00902,0.0,9.7523,1
12.88,0.48403,1.13522,-9.6813,0.13115,0.0146,0.00894,0.09658,0.00827,0.0,9.75964,1
12.89,0.48562,1.12947,-9.6893,0.1314,0.00984,0.01052,0.09656,0.00751,0.0,9.76699,1
12.9,0.4872,1.12371,-9.6973,0.13165,0.00508,0.0121,0.09655,0.00676,0.0,9.77434,1
12.91,0.47994,1.12503,-9.69434,0.13102,0.00395,0.01253,0.09653,0.0065,0.0,9.77119,1
12.92,0.47267,1.12634,-9.69137,0.13038,0.00281,0.01297,0.09651,0.00625,0.0,9.76805,1
12.93,0.46541,1.12766,-9.68841,0.12975,0.00168,0.01341,0.09649,0.00599,0.0,9.76491,1
12.94,0.4632,1.11953,-9.68821,0.12879,-0.00089,0.01532,0.09647,0.006,0.0,9.76367,1
12.95,0.46352,1.10668,-9.68939,0.12766,-0.00419,0.01798,0.09645,0.00614,0.0,9.7634,1
12.96,0.46384,1.09383,-9.69058,0.12653,-0.00748,0.02064,0.09643,0.00627,0.0,9.76314,1
12.97,0.46026,1.08055,-9.69144,0.12606,-0.00965,0.0228,0.09641,0.00616,0.0,9.76234,1
12.98,0.44887,1.06639,-9.69165,0.1269,-0.00956,0.02398,0.09639,0.00552,0.0,9.76047,1
12.99,0.43749,1.05222,-9.69187,0.12773,-0.00946,0.02515,0.09637,0.00489,0.0,9.75863,1
13.0,0.42611,1.03806,-9.69208,0.12857,-0.00937,0.02633,0.09635,0.00426,0.0,9.75682,1
13.01,0.42408,1.02448,-9.68959,0.13111,-0.01032,0.02644,0.09633,0.00434,0.0,9.75283,1
13.02,0.42206,1.01091,-9.68711,0.13364,-0.01128,0.02656,0.09631,0.00442,0.0,9.74885,1
13.03,0.42004,0.99733,-9.68462,0.13618,-0.01223,0.02667,0.09629,0.00451,0.0,9.7449,1
13.04,0.41055,0.98723,-9.69021,0.13565,-0.01444,0.02727,0.09627,0.00455,0.0,9.74902,1
13.05,0.39733,0.97888,-9.69984,0.13358,-0.01728,0.0281,0.09625,0.00459,0.0,9.7572,1
13.06,0.38411,0.97053,-9.70947,0.13151,-0.02011,0.02894,0.09623,0.00462,0.0,9.76541,1
13.07,0.37165,0.96414,-9.71786,0.13043,-0.02224,0.02982,0.09621,0.00457,0.0,9.77264,1
13.08,0.36072,0.96167,-9.72379,0.13132,-0.02297,0.03082,0.09619,0.00436,0.0,9.77788,1
13.09,0.34979,0.95919,-9.72971,0.13222,-0.0237,0.03181,0.09617,0.00415,0.0,9.78314,1
13.1,0.33886,0.95672,-9.73564,0.13311,-0.02443,0.0328,0.09615,0.00394,0.0,9.7884,1
13.11,0.34095,0.93423,-9.7365,0.13418,-0.0241,0.03453,0.09612,0.00411,0.0,9.78716,1
13.12,0.34305,0.91174,-9.73737,0.13525,-0.02378,0.03625,0.09609,0.00428,0.0,9.78598,1
13.13,0.34514,0.88924,-9.73824,0.13633,-0.02345,0.03798,0.09607,0.00445,0.0,9.78484,1
13.14,0.33831,0.8724,-9.73895,0.13828,-0.02339,0.03624,0.09605,0.00451,0.0,9.7838,1
13.15,0.32701,0.85837,-9.73958,0.14066,-0.02345,0.03277,0.09603,0.00452,0.0,9.7828,1
13.16,0.31572,0.84435,-9.74022,0.14305,-0.02352,0.02929,0.09601,0.00452,0.0,9.78184,1
13.17,0.3097,0.82815,-9.74197,0.14446,-0.0239,0.02668,0.09599,0.00446,0.0,9.78201,1
13.18,0.31424,0.80759,-9.74594,0.14393,-0.0249,0.02581,0.09598,0.00427,0.0,9.78439,1
13.19,0.31878,0.78703,-9.74991,0.1434,-0.02591,0.02494,0.09596,0.00408,0.0,9.78682,1
13.2,0.32332,0.76647,-9.75389,0.14287,-0.02692,0.02407,0.09594,0.00389,0.0,9.7893,1
13.21,0.32185,0.74123,-9.75763,0.13783,-0.02783,0.02267,0.09592,0.00405,0.0,9.79104,1
13.22,0.32039,0.71598,-9.76138,0.13279,-0.02875,0.02127,0.0959,0.00421,0.0,9.79284,1
13.23,0.31892,0.69073,-9.76512,0.12775,-0.02966,0.01988,0.09588,0.00437,0.0,9.79471,1
13.24,0.31154,0.67289,-9.76911,0.12331,-0.02821,0.01825,0.09587,0.00451,0.0,9.79721,1
13.25,0.3012,0.65876,-9.77322,0.11916,-0.0256,0.0165,0.09587,0.00464,0.0,9.80002,1
13.26,0.29087,0.64462,-9.77733,0.11501,-0.02298,0.01475,0.09587,0.00476,0.0,9.80287,1
13.27,0.28183,0.63329,-9.77919,0.11076,-0.01983,0.01329,0.09586,0.00493,0.0,9.80372,1
13.28,0.27539,0.62757,-9.77655,0.10632,-0.01564,0.01243,0.09586,0.00519,0.0,9.80054,1
13.29,0.26894,0.62185,-9.77391,0.10188,-0.01145,0.01157,0.09586,0.00545,0.0,9.79736,1
13.3,0.2625,0.61613,-9.77127,0.09743,-0.00726,0.01071,0.09586,0.00571,0.0,9.79419,1
13.31,0.25586,0.61765,-9.77688,0.09355,-0.00425,0.01128,0.09586,0.00542,0.0,9.79972,1
13.32,0.24922,0.61916,-9.7825,0.08968,-0.00124,0.01186,0.09585,0.00514,0.0,9.80524,1
13.33,0.24258,0.62068,-9.78811,0.0858,0.00177,0.01244,0.09584,0.00485,0.0,9.81077,1
13.34,0.23787,0.61603,-9.78545,0.08518,0.00347,0.01224,0.09583,0.00457,0.0,9.80771,1
13.35,0.23414,0.60829,-9.77866,0.08619,0.00451,0.01166,0.09583,0.00428,0.0,9.80035,1
13.36,0.2304,0.60056,-9.77186,0.08721,0.00556,0.01107,0.09582,0.004,0.0,9.79301,1
13.37,0.22889,0.5905,-9.7637,0.08793,0.00664,0.01007,0.09582,0.00397,0.0,9.78422,1
13.38,0.23181,0.57578,-9.75283,0.08806,0.00781,0.00825,0.09582,0.00448,0.0,9.77256,1
13.39,0.23474,0.56106,-9.74195,0.08819,0.00898,0.00642,0.09582,0.00498,0.0,9.76092,1
13.4,0.23767,0.54635,-9.73108,0.08832,0.01015,0.00459,0.09582,0.00549,0.0,9.7493,1
13.41,0.22941,0.5404,-9.72778,0.08473,0.01248,0.00146,0.09581,0.0055,0.0,9.74548,1
13.42,0.22115,0.53445,-9.72448,0.08114,0.01481,-0.00167,0.09581,0.00552,0.0,9.74166,1
13.43,0.2129,0.5285,-9.72118,0.07755,0.01714,-0.00479,0.0958,0.00553,0.0,9.73786,1
13.44,0.21573,0.52223,-9.72801,0.07679,0.01868,-0.00722,0.0958,0.00528,0.0,9.7444,1
13.45,0.22412,0.5158,-9.7399,0.07746,0.01982,-0.0093,0.0958,0.00489,0.0,9.75612,1
13.46,0.2325,0.50936,-9.75179,0.07813,0.02095,-0.01137,0.0958,0.00451,0.0,9.76786,1
13.47,0.23924,0.50282,-9.76095,0.07824,0.02263,-0.01252,0.09581,0.00429,0.0,9.77682,1
13.48,0.24268,0.49604,-9.76465,0.07722,0.02539,-0.01183,0.09581,0.00439,0.0,9.78025,1
13.49,0.24612,0.48926,-9.76834,0.07621,0.02815,-0.01113,0.0958,0.00449,0.0,9.78368,1
13.5,0.24956,0.48248,-9.77203,0.07519,0.03091,-0.01043,0.0958,0.0046,0.0,9.78712,1
13.51,0.24354,0.47694,-9.76956,0.07347,0.0309,-0.01239,0.09581,0.00475,0.0,9.78423,1
13.52,0.23751,0.47139,-9.7671,0.07174,0.03088,-0.01434,0.09581,0.00489,0.0,9.78135,1
13.53,0.23148,0.46584,-9.76463,0.07002,0.03086,-0.01629,0.09582,0.00504,0.0,9.77847,1
13.54,0.22938,0.45667,-9.77588,0.06801,0.03126,-0.0182,0.09582,0.0048,0.0,9.78923,1
13.55,0.22925,0.44568,-9.794,0.06584,0.03186,-0.02007,0.09582,0.00437,0.0,9.80681,1
13.56,0.22911,0.43469,-9.81211,0.06368,0.03246,-0.02194,0.09583,0.00394,0.0,9.82441,1
13.57,0.23253,0.42998,-9.82403,0.06363,0.0331,-0.02301,0.09583,0.00371,0.0,9.83618,1
13.58,0.24307,0.43784,-9.82353,0.06779,0.0338,-0.02246,0.09584,0.00385,0.0,9.83629,1
13.59,0.25362,0.4457,-9.82304,0.07195,0.0345,-0.0219,0.09584,0.004,0.0,9.83642,1
13.6,0.26416,0.45356,-9.82255,0.07611,0.03521,-0.02135,0.09585,0.00414,0.0,9.83656,1
13.61,0.26848,0.44515,-9.81875,0.07771,0.03595,-0.02021,0.09585,0.00406,0.0,9.8325,1
13.62,0.27281,0.43675,-9.81494,0.0793,0.03669,-0.01907,0.09585,0.00398,0.0,9.82844,1
13.63,0.27714,0.42834,-9.81114,0.0809,0.03744,-0.01793,0.09586,0.0039,0.0,9.8244,1
13.64,0.27499,0.42217,-9.80372,0.08337,0.0392,-0.01674,0.09586,0.00419,0.0,9.81666,1
13.65,0.26961,0.4171,-9.7945,0.08628,0.04147,-0.01553,0.09586,0.00465,0.0,9.80708,1
13.66,0.26422,0.41204,-9.78527,0.0892,0.04374,-0.01432,0.09586,0.00512,0.0,9.79751,1
13.67,0.26003,0.39959,-9.77849,0.09105,0.04544,-0.01368,0.09587,0.00539,0.0,9.79011,1
13.68,0.25822,0.37235,-9.7766,0.09078,0.046,-0.01419,0.09587,0.00524,0.0,9.78709,1
13.69,0.25642,0.34512,-9.77471,0.0905,0.04657,-0.01469,0.09588,0.00509,0.0,9.78416,1
13.7,0.25461,0.31788,-9.77281,0.09023,0.04713,-0.01519,0.09588,0.00495,0.0,9.7813,1
13.71,0.25093,0.30953,-9.78335,0.09013,0.05111,-0.01783,0.0959,0.00481,0.0,9.79147,1
13.72,0.24725,0.30119,-9.7939,0.09004,0.05509,-0.02048,0.09591,0.00467,0.0,9.80164,1
13.73,0.24357,0.29284,-9.80444,0.08994,0.05906,-0.02312,0.09592,0.00453,0.0,9.81183,1
13.74,0.23511,0.29694,-9.79162,0.09033,0.06118,-0.02633,0.09594,0.00449,0.0,9.79894,1
13.75,0.22428,0.30728,-9.76712,0.09097,0.06237,-0.02983,0.09595,0.00451,0.0,9.77452,1
13.76,0.21344,0.31761,-9.74262,0.0916,0.06356,-0.03333,0.09596,0.00452,0.0,9.75013,1
13.77,0.20752,0.31686,-9.73014,0.09338,0.06517,-0.03571,0.09598,0.00446,0.0,9.73751,1
13.78,0.21141,0.29394,-9.74171,0.09744,0.06761,-0.03582,0.09599,0.00423,0.0,9.74844,1
13.79,0.2153,0.27103,-9.75328,0.10151,0.07006,-0.03594,0.09601,0.00401,0.0,9.75942,1
13.8,0.21919,0.24811,-9.76484,0.10557,0.0725,-0.03605,0.09602,0.00378,0.0,9.77045,1
13.81,0.24021,0.2527,-9.77617,0.10483,0.07464,-0.03346,0.096,0.00444,0.0,9.78239,1
13.82,0.26124,0.25728,-9.78751,0.1041,0.07677,-0.03087,0.09598,0.0051,0.0,9.79437,1
13.83,0.28226,0.26186,-9.79884,0.10337,0.0789,-0.02828,0.09596,0.00576,0.0,9.8064,1
13.84,0.305,0.19778,-9.84668,0.10527,0.08882,-0.02636,0.09631,0.00813,0.0,9.85339,1
